Subject,Part,Block,Trial,Stim,Stim_Group,RT,Correct,Stim_pos,Mask_side (correct response in conscious),Response
2,conscious trial,1,1,folder/matchedh16.jpg,2,0.983404665,1,3,2,1
2,conscious trial,1,2,folder/matchedh9.jpg,2,1.505874525,1,3,2,1
2,conscious trial,1,3,folder/matchedh24.jpg,2,1.783390143,1,2,2,1
2,conscious trial,1,4,folder/matchedh7.jpg,2,0.604444732,1,3,2,1
2,conscious trial,1,5,folder/matchedh7.jpg,2,0.53605515,1,1,2,1
2,conscious trial,1,6,folder/matchedh14.jpg,2,0.523612397,1,2,2,1
2,conscious trial,1,7,folder/matchedM103.png,1,0.595625584,1,3,1,2
2,conscious trial,1,8,folder/matchedh20.jpg,2,0.539031937,1,1,2,1
2,conscious trial,1,9,folder/matchedh20.jpg,2,0.487189387,1,4,2,1
2,conscious trial,1,10,folder/matchedh24.jpg,2,0.567161615,1,3,2,1
2,conscious trial,1,11,folder/matchedh9.jpg,2,0.371814841,1,2,2,1
2,conscious trial,1,12,folder/matchedM001.png,1,0.491232366,1,3,1,2
2,conscious trial,1,13,folder/matchedh18.jpg,2,0.507388367,1,1,2,1
2,conscious trial,1,14,folder/matchedh8.jpg,2,0.547016617,1,2,2,1
2,conscious trial,1,15,folder/matchedM067.png,1,0.476375375,1,3,1,2
2,conscious trial,1,16,folder/matchedh9.jpg,2,0.445416555,1,4,2,1
2,conscious trial,1,17,folder/matchedh7.jpg,2,0.366177434,1,4,2,1
2,conscious trial,1,18,folder/matchedh18.jpg,2,0.388524985,0,3,2,2
2,conscious trial,1,19,folder/matchedh7.jpg,2,0.736450005,1,1,2,1
2,conscious trial,1,20,folder/matchedM087.png,1,0.726293626,1,2,1,2
2,conscious trial,1,21,folder/matchedh14.jpg,2,0.855934378,1,3,2,1
2,conscious trial,1,22,folder/matchedh11.jpg,2,0.486423348,1,2,2,1
2,conscious trial,1,23,folder/matchedh18.jpg,2,0.42674844,1,2,2,1
2,conscious trial,1,24,folder/matchedh11.jpg,2,0.357357885,1,2,2,1
2,conscious trial,1,25,folder/matchedh8.jpg,2,0.345846042,1,2,2,1
2,conscious trial,1,26,folder/matchedM006.png,1,0.545463741,1,4,1,2
2,conscious trial,1,27,folder/matchedh20.jpg,2,0.434174978,1,2,2,1
2,conscious trial,1,28,folder/matchedh11.jpg,2,0.82589733,1,3,2,1
2,conscious trial,1,29,folder/matchedh14.jpg,2,0.49406721,1,4,2,1
2,conscious trial,1,30,folder/matchedh4.jpg,2,0.336936166,1,4,2,1
2,conscious trial,1,31,folder/matchedh8.jpg,2,0.493572567,1,1,2,1
2,conscious trial,1,32,folder/matchedh18.jpg,2,0.586532961,1,3,2,1
2,conscious trial,1,33,folder/matchedh24.jpg,2,0.45291111,1,3,2,1
2,conscious trial,1,34,folder/matchedh8.jpg,2,0.406300264,1,1,2,1
2,conscious trial,1,35,folder/matchedh16.jpg,2,0.343711088,1,2,2,1
2,conscious trial,1,36,folder/matchedM102.png,1,0.292509684,0,1,1,1
2,conscious trial,1,37,folder/matchedh4.jpg,2,0.765437154,1,2,2,1
2,conscious trial,1,38,folder/matchedh4.jpg,2,0.773815056,1,2,2,1
2,conscious trial,1,39,folder/matchedh16.jpg,2,0.554050991,1,4,2,1
2,conscious trial,1,40,folder/matchedh4.jpg,2,0.56617351,1,1,2,1
2,conscious trial,1,41,folder/matchedh16.jpg,2,1.395633048,1,3,2,1
2,conscious trial,1,42,folder/matchedh14.jpg,2,0.396225219,1,3,2,1
2,conscious trial,1,43,folder/matchedM023.png,1,0.495039151,1,2,1,2
2,conscious trial,1,44,folder/matchedM021.png,1,0.585009435,1,4,1,2
2,conscious trial,1,45,folder/matchedM003.png,1,0.423911506,1,4,1,2
2,conscious trial,1,46,folder/matchedh11.jpg,2,0.596078626,1,4,2,1
2,conscious trial,1,47,folder/matchedh24.jpg,2,0.783001051,1,1,2,1
2,conscious trial,1,48,folder/matchedh20.jpg,2,0.474168586,1,2,2,1
2,conscious trial,1,49,folder/matchedM017.png,1,0.685615568,1,2,1,2
2,conscious trial,1,50,folder/matchedh9.jpg,2,0.603713196,1,3,2,1
2,conscious trial,2,51,folder/matchedh16.jpg,2,0.526418166,1,4,2,1
2,conscious trial,2,52,folder/matchedM006.png,1,0.557303269,1,4,1,2
2,conscious trial,2,53,folder/matchedh24.jpg,2,0.680991327,1,3,2,1
2,conscious trial,2,54,folder/matchedh7.jpg,2,0.535953256,1,2,2,1
2,conscious trial,2,55,folder/matchedM023.png,1,0.474023358,1,1,1,2
2,conscious trial,2,56,folder/matchedh9.jpg,2,0.48650317,1,3,2,1
2,conscious trial,2,57,folder/matchedM017.png,1,0.493511662,1,1,1,2
2,conscious trial,2,58,folder/matchedM003.png,1,0.434444618,1,4,1,2
2,conscious trial,2,59,folder/matchedh20.jpg,2,0.515033662,1,2,2,1
2,conscious trial,2,60,folder/matchedh4.jpg,2,0.617358963,0,1,2,2
2,conscious trial,2,61,folder/matchedh24.jpg,2,1.154993087,1,1,2,1
2,conscious trial,2,62,folder/matchedh16.jpg,2,0.6558288,1,4,2,1
2,conscious trial,2,63,folder/matchedh11.jpg,2,0.455790101,1,1,2,1
2,conscious trial,2,64,folder/matchedh20.jpg,2,0.573052893,1,3,2,1
2,conscious trial,2,65,folder/matchedh9.jpg,2,0.476079617,1,2,2,1
2,conscious trial,2,66,folder/matchedM001.png,1,0.605771794,1,1,1,2
2,conscious trial,2,67,folder/matchedh18.jpg,2,0.82762416,1,2,2,1
2,conscious trial,2,68,folder/matchedh7.jpg,2,0.536653691,1,3,2,1
2,conscious trial,2,69,folder/matchedh7.jpg,2,0.467781496,1,1,2,1
2,conscious trial,2,70,folder/matchedh24.jpg,2,0.516027154,1,2,2,1
2,conscious trial,2,71,folder/matchedh4.jpg,2,0.37630876,1,4,2,1
2,conscious trial,2,72,folder/matchedh4.jpg,2,0.564620077,1,2,2,1
2,conscious trial,2,73,folder/matchedh16.jpg,2,0.467284124,1,1,2,1
2,conscious trial,2,74,folder/matchedh18.jpg,2,0.386385541,1,4,2,1
2,conscious trial,2,75,folder/matchedh7.jpg,2,0.354472759,1,1,2,1
2,conscious trial,2,76,folder/matchedh14.jpg,2,0.398067499,1,3,2,1
2,conscious trial,2,77,folder/matchedh18.jpg,2,0.306270258,1,4,2,1
2,conscious trial,2,78,folder/matchedh9.jpg,2,0.345982304,1,1,2,1
2,conscious trial,2,79,folder/matchedh4.jpg,2,0.40538586,1,2,2,1
2,conscious trial,2,80,folder/matchedM102.png,1,0.535349031,1,3,1,2
2,conscious trial,2,81,folder/matchedh8.jpg,2,0.546332776,1,3,2,1
2,conscious trial,2,82,folder/matchedh9.jpg,2,0.532894083,1,2,2,1
2,conscious trial,2,83,folder/matchedh14.jpg,2,0.586606209,1,1,2,1
2,conscious trial,2,84,folder/matchedh14.jpg,2,0.412448832,1,1,2,1
2,conscious trial,2,85,folder/matchedh11.jpg,2,0.453991463,1,2,2,1
2,conscious trial,2,86,folder/matchedh14.jpg,2,0.463505673,1,2,2,1
2,conscious trial,2,87,folder/matchedh11.jpg,2,0.543924898,1,2,2,1
2,conscious trial,2,88,folder/matchedh8.jpg,2,0.412748063,1,1,2,1
2,conscious trial,2,89,folder/matchedM103.png,1,0.563290933,1,3,1,2
2,conscious trial,2,90,folder/matchedh8.jpg,2,0.492818234,1,1,2,1
2,conscious trial,2,91,folder/matchedh20.jpg,2,0.982828744,1,2,2,1
2,conscious trial,2,92,folder/matchedM067.png,1,0.551751959,1,1,1,2
2,conscious trial,2,93,folder/matchedM087.png,1,0.631678556,1,3,1,2
2,conscious trial,2,94,folder/matchedh8.jpg,2,0.443516143,1,4,2,1
2,conscious trial,2,95,folder/matchedh11.jpg,2,0.713536439,1,3,2,1
2,conscious trial,2,96,folder/matchedh16.jpg,2,0.514430192,1,3,2,1
2,conscious trial,2,97,folder/matchedh20.jpg,2,0.554941647,1,1,2,1
2,conscious trial,2,98,folder/matchedM021.png,1,0.893723168,1,1,1,2
2,conscious trial,2,99,folder/matchedh18.jpg,2,0.912663581,1,2,2,1
2,conscious trial,2,100,folder/matchedh24.jpg,2,0.825218737,1,1,2,1
2,experimental trial,1,1,folder/matchedM100.png,1,9.999184184,1,3,1,3
2,experimental trial,1,2,folder/matchedh3.jpg,2,8.07201524,0,2,1,1
2,experimental trial,1,3,folder/matchedh15.jpg,2,1.827189735,1,4,1,4
2,experimental trial,1,4,folder/matchedh23.jpg,2,0.757540726,1,4,1,4
2,experimental trial,1,5,folder/matchedh10.jpg,2,0.664047771,1,4,1,4
2,experimental trial,1,6,folder/matchedh21.jpg,2,9.582240538,0,3,1,4
2,experimental trial,1,7,folder/matchedh5.jpg,2,3.315984323,1,3,1,3
2,experimental trial,1,8,folder/matchedM096.png,1,4.193125064,1,3,1,3
2,experimental trial,1,9,folder/matchedh6.jpg,2,3.139013925,1,4,1,4
2,experimental trial,1,10,folder/matchedh6.jpg,2,1.368373912,1,3,2,3
2,experimental trial,1,11,folder/matchedh10.jpg,2,6.233193508,1,3,1,3
2,experimental trial,1,12,folder/matchedh1.jpg,2,5.61580849,1,4,1,4
2,experimental trial,1,13,folder/matchedh5.jpg,2,1.764636631,1,3,2,3
2,experimental trial,1,14,folder/matchedh23.jpg,2,2.877901208,1,4,1,4
2,experimental trial,1,15,folder/matchedh1.jpg,2,1.114802972,1,1,1,1
2,experimental trial,1,16,folder/matchedh10.jpg,2,4.19239372,1,3,1,3
2,experimental trial,1,17,folder/matchedh1.jpg,2,1.595193453,1,2,2,2
2,experimental trial,1,18,folder/matchedh3.jpg,2,1.583919564,1,1,2,1
2,experimental trial,1,19,folder/matchedh19.jpg,2,7.19473368,1,4,1,4
2,experimental trial,1,20,folder/matchedh15.jpg,2,1.006946263,1,2,2,2
2,experimental trial,1,21,folder/matchedh21.jpg,2,1.404729648,1,1,1,1
2,experimental trial,1,22,folder/matchedh23.jpg,2,3.67803217,1,4,2,4
2,experimental trial,1,23,folder/matchedh3.jpg,2,3.346192561,1,4,1,4
2,experimental trial,1,24,folder/matchedh15.jpg,2,10.00365169,-1,2,1,0
2,experimental trial,1,25,folder/matchedh6.jpg,2,2.286763734,1,4,2,4
2,experimental trial,1,26,folder/matchedh6.jpg,2,1.514782672,1,2,1,2
2,experimental trial,1,27,folder/matchedM004.png,1,3.414333528,1,4,1,4
2,experimental trial,1,28,folder/matchedh22.jpg,2,2.134692308,1,1,2,1
2,experimental trial,1,29,folder/matchedM024.png,1,1.696656479,1,3,1,3
2,experimental trial,1,30,folder/matchedh5.jpg,2,1.043907183,1,2,2,2
2,experimental trial,1,31,folder/matchedh19.jpg,2,1.274709887,1,1,1,1
2,experimental trial,1,32,folder/matchedh15.jpg,2,1.155874103,1,4,1,4
2,experimental trial,1,33,folder/matchedM016.png,1,1.183526352,1,3,2,3
2,experimental trial,1,34,folder/matchedh22.jpg,2,1.244138166,0,1,2,2
2,experimental trial,1,35,folder/matchedh22.jpg,2,1.075628426,1,1,1,1
2,experimental trial,1,36,folder/matchedh21.jpg,2,1.347427998,1,3,1,3
2,experimental trial,1,37,folder/matchedh21.jpg,2,2.034550777,1,3,1,3
2,experimental trial,1,38,folder/matchedh23.jpg,2,10.00468598,-1,3,1,0
2,experimental trial,1,39,folder/matchedM020.png,1,1.334376685,1,4,1,4
2,experimental trial,1,40,folder/matchedh1.jpg,2,1.778376702,1,2,1,2
2,experimental trial,1,41,folder/matchedh5.jpg,2,1.035286872,1,1,1,1
2,experimental trial,1,42,folder/matchedM094.png,1,1.62461637,1,4,2,4
2,experimental trial,1,43,folder/matchedM019.png,1,1.244980732,0,1,2,3
2,experimental trial,1,44,folder/matchedM072.png,1,3.503702076,1,4,1,4
2,experimental trial,1,45,folder/matchedh19.jpg,2,1.114802453,1,4,1,4
2,experimental trial,1,46,folder/matchedh10.jpg,2,0.765146931,1,2,2,2
2,experimental trial,1,47,folder/matchedM098.png,1,1.16613048,1,2,2,2
2,experimental trial,1,48,folder/matchedh19.jpg,2,1.373814723,0,1,2,2
2,experimental trial,1,49,folder/matchedh22.jpg,2,0.934934328,1,3,2,3
2,experimental trial,1,50,folder/matchedh3.jpg,2,0.948033738,1,4,1,4
2,experimental trial,2,51,folder/matchedh22.jpg,2,1.296812097,1,2,2,2
2,experimental trial,2,52,folder/matchedh3.jpg,2,2.074716591,1,2,1,2
2,experimental trial,2,53,folder/matchedh3.jpg,2,2.238303608,1,2,1,2
2,experimental trial,2,54,folder/matchedh21.jpg,2,1.567341171,1,1,2,1
2,experimental trial,2,55,folder/matchedh5.jpg,2,0.783038739,1,4,1,4
2,experimental trial,2,56,folder/matchedh5.jpg,2,1.845147813,1,3,2,3
2,experimental trial,2,57,folder/matchedh23.jpg,2,0.982819643,1,4,1,4
2,experimental trial,2,58,folder/matchedh22.jpg,2,2.143836558,1,2,1,2
2,experimental trial,2,59,folder/matchedh23.jpg,2,2.523696718,1,3,1,3
2,experimental trial,2,60,folder/matchedh1.jpg,2,1.315202376,1,4,2,4
2,experimental trial,2,61,folder/matchedh10.jpg,2,2.712856544,1,3,1,3
2,experimental trial,2,62,folder/matchedh10.jpg,2,5.683805943,1,4,2,4
2,experimental trial,2,63,folder/matchedh22.jpg,2,3.113479532,1,1,1,1
2,experimental trial,2,64,folder/matchedh21.jpg,2,1.594040198,1,1,1,1
2,experimental trial,2,65,folder/matchedh19.jpg,2,2.011699286,1,4,2,4
2,experimental trial,2,66,folder/matchedh3.jpg,2,4.572900987,1,4,1,4
2,experimental trial,2,67,folder/matchedh19.jpg,2,1.746698105,1,1,2,1
2,experimental trial,2,68,folder/matchedM096.png,1,1.151893432,1,4,1,4
2,experimental trial,2,69,folder/matchedM098.png,1,1.034117445,1,2,2,2
2,experimental trial,2,70,folder/matchedh6.jpg,2,1.356979888,1,1,1,1
2,experimental trial,2,71,folder/matchedh5.jpg,2,3.33402437,1,3,1,3
2,experimental trial,2,72,folder/matchedh10.jpg,2,1.814141107,1,4,1,4
2,experimental trial,2,73,folder/matchedM100.png,1,1.592707817,1,2,1,2
2,experimental trial,2,74,folder/matchedh6.jpg,2,1.746603873,1,1,2,1
2,experimental trial,2,75,folder/matchedh6.jpg,2,1.421431787,1,3,2,3
2,experimental trial,2,76,folder/matchedM019.png,1,1.054670617,1,2,2,2
2,experimental trial,2,77,folder/matchedM016.png,1,1.502044801,1,1,2,1
2,experimental trial,2,78,folder/matchedh19.jpg,2,1.393724355,1,2,2,2
2,experimental trial,2,79,folder/matchedh21.jpg,2,1.143431696,1,3,1,3
2,experimental trial,2,80,folder/matchedh15.jpg,2,2.3038523,1,2,1,2
2,experimental trial,2,81,folder/matchedM004.png,1,1.654035979,1,1,1,1
2,experimental trial,2,82,folder/matchedM072.png,1,1.194259242,1,2,2,2
2,experimental trial,2,83,folder/matchedh15.jpg,2,2.696122194,1,2,1,2
2,experimental trial,2,84,folder/matchedh6.jpg,2,3.124612813,1,1,1,1
2,experimental trial,2,85,folder/matchedM020.png,1,2.764340449,1,4,2,4
2,experimental trial,2,86,folder/matchedh1.jpg,2,1.805394783,0,4,2,1
2,experimental trial,2,87,folder/matchedM024.png,1,1.253191135,1,1,1,1
2,experimental trial,2,88,folder/matchedh5.jpg,2,1.334501831,1,1,1,1
2,experimental trial,2,89,folder/matchedh23.jpg,2,1.190119346,1,3,1,3
2,experimental trial,2,90,folder/matchedh1.jpg,2,1.116056685,1,2,2,2
2,experimental trial,2,91,folder/matchedM094.png,1,1.084639113,1,1,1,1
2,experimental trial,2,92,folder/matchedh1.jpg,2,1.484657256,1,4,1,4
2,experimental trial,2,93,folder/matchedh23.jpg,2,1.594096378,1,2,1,2
2,experimental trial,2,94,folder/matchedh21.jpg,2,1.28158668,1,3,2,3
2,experimental trial,2,95,folder/matchedh19.jpg,2,1.314768172,1,1,1,1
2,experimental trial,2,96,folder/matchedh10.jpg,2,1.10914093,1,1,2,1
2,experimental trial,2,97,folder/matchedh15.jpg,2,3.310533091,0,3,1,4
2,experimental trial,2,98,folder/matchedh15.jpg,2,4.686081249,1,4,1,4
2,experimental trial,2,99,folder/matchedh22.jpg,2,5.662930652,1,3,1,3
2,experimental trial,2,100,folder/matchedh3.jpg,2,1.285725895,1,1,1,1
2,experimental trial,3,101,folder/matchedM100.png,1,1.80626584,1,3,1,3
2,experimental trial,3,102,folder/matchedM072.png,1,2.083041415,1,3,1,3
2,experimental trial,3,103,folder/matchedh5.jpg,2,1.61248892,1,3,2,3
2,experimental trial,3,104,folder/matchedh19.jpg,2,0.896123399,1,3,2,3
2,experimental trial,3,105,folder/matchedM094.png,1,1.644289222,0,3,1,4
2,experimental trial,3,106,folder/matchedh6.jpg,2,0.66498087,1,3,2,3
2,experimental trial,3,107,folder/matchedh23.jpg,2,1.713379227,1,1,2,1
2,experimental trial,3,108,folder/matchedh10.jpg,2,0.902755197,1,1,1,1
2,experimental trial,3,109,folder/matchedh6.jpg,2,1.78474425,1,4,2,4
2,experimental trial,3,110,folder/matchedh10.jpg,2,0.924726589,1,1,1,1
2,experimental trial,3,111,folder/matchedh22.jpg,2,2.009997971,1,1,2,1
2,experimental trial,3,112,folder/matchedh15.jpg,2,3.413207924,1,2,1,2
2,experimental trial,3,113,folder/matchedh23.jpg,2,10.0049586,-1,2,1,0
2,experimental trial,3,114,folder/matchedh15.jpg,2,1.853071889,1,4,1,4
2,experimental trial,3,115,folder/matchedh5.jpg,2,1.461878393,1,2,1,2
2,experimental trial,3,116,folder/matchedM098.png,1,1.431980656,1,2,2,2
2,experimental trial,3,117,folder/matchedh3.jpg,2,1.110674513,1,4,1,4
2,experimental trial,3,118,folder/matchedh21.jpg,2,1.033162887,1,1,1,1
2,experimental trial,3,119,folder/matchedh21.jpg,2,1.662838209,1,2,1,2
2,experimental trial,3,120,folder/matchedM016.png,1,2.253469412,1,3,1,3
2,experimental trial,3,121,folder/matchedh22.jpg,2,4.223286341,0,3,2,2
2,experimental trial,3,122,folder/matchedh1.jpg,2,2.915216557,1,2,1,2
2,experimental trial,3,123,folder/matchedh23.jpg,2,4.382954622,1,1,2,1
2,experimental trial,3,124,folder/matchedM019.png,1,2.231304086,1,4,2,4
2,experimental trial,3,125,folder/matchedh21.jpg,2,2.42263331,1,4,2,4
2,experimental trial,3,126,folder/matchedh19.jpg,2,3.376233485,1,4,1,4
2,experimental trial,3,127,folder/matchedh19.jpg,2,1.119623396,1,4,2,4
2,experimental trial,3,128,folder/matchedh23.jpg,2,1.114814863,1,2,2,2
2,experimental trial,3,129,folder/matchedh1.jpg,2,1.55077885,1,4,1,4
2,experimental trial,3,130,folder/matchedh15.jpg,2,1.553296652,1,2,2,2
2,experimental trial,3,131,folder/matchedh6.jpg,2,2.054042637,1,3,1,3
2,experimental trial,3,132,folder/matchedh19.jpg,2,1.07589345,1,1,1,1
2,experimental trial,3,133,folder/matchedh10.jpg,2,5.162812872,1,2,1,2
2,experimental trial,3,134,folder/matchedM096.png,1,4.602218289,1,2,1,2
2,experimental trial,3,135,folder/matchedh21.jpg,2,3.403247935,1,4,2,4
2,experimental trial,3,136,folder/matchedM004.png,1,1.745833468,1,4,1,4
2,experimental trial,3,137,folder/matchedh15.jpg,2,1.908932188,1,3,2,3
2,experimental trial,3,138,folder/matchedh1.jpg,2,3.962210725,1,4,1,4
2,experimental trial,3,139,folder/matchedh5.jpg,2,3.125539615,1,2,2,2
2,experimental trial,3,140,folder/matchedM020.png,1,1.246655407,1,2,2,2
2,experimental trial,3,141,folder/matchedh10.jpg,2,1.164436906,1,2,1,2
2,experimental trial,3,142,folder/matchedh1.jpg,2,2.156004749,1,2,1,2
2,experimental trial,3,143,folder/matchedh22.jpg,2,2.894145001,1,4,1,4
2,experimental trial,3,144,folder/matchedh3.jpg,2,1.364446045,1,4,2,4
2,experimental trial,3,145,folder/matchedh3.jpg,2,1.075280071,1,1,1,1
2,experimental trial,3,146,folder/matchedh3.jpg,2,1.906043156,1,4,2,4
2,experimental trial,3,147,folder/matchedh6.jpg,2,2.004100172,1,1,2,1
2,experimental trial,3,148,folder/matchedh22.jpg,2,1.552472191,1,3,1,3
2,experimental trial,3,149,folder/matchedM024.png,1,1.700965688,1,4,2,4
2,experimental trial,3,150,folder/matchedh5.jpg,2,1.620963317,1,2,1,2
3,conscious trial,1,1,folder/matchedM017.png,1,0.503065856,1,3,1,2
3,conscious trial,1,2,folder/matchedM103.png,1,0.433011362,1,4,1,2
3,conscious trial,1,3,folder/matchedh20.jpg,2,0.44200635,1,4,2,1
3,conscious trial,1,4,folder/matchedM017.png,1,0.382506825,1,2,1,2
3,conscious trial,1,5,folder/matchedM023.png,1,0.386023961,1,4,1,2
3,conscious trial,1,6,folder/matchedM103.png,1,0.455356709,1,2,1,2
3,conscious trial,1,7,folder/matchedh11.jpg,2,0.425885976,1,4,2,1
3,conscious trial,1,8,folder/matchedM001.png,1,0.432199161,1,4,1,2
3,conscious trial,1,9,folder/matchedM087.png,1,0.356438121,1,4,1,2
3,conscious trial,1,10,folder/matchedM067.png,1,0.481726641,1,1,1,2
3,conscious trial,1,11,folder/matchedM003.png,1,0.372785996,1,2,1,2
3,conscious trial,1,12,folder/matchedM017.png,1,0.382431348,1,1,1,2
3,conscious trial,1,13,folder/matchedM001.png,1,0.415247357,1,1,1,2
3,conscious trial,1,14,folder/matchedM087.png,1,0.392643203,1,4,1,2
3,conscious trial,1,15,folder/matchedM021.png,1,0.41041305,1,3,1,2
3,conscious trial,1,16,folder/matchedM003.png,1,0.344322027,1,2,1,2
3,conscious trial,1,17,folder/matchedM102.png,1,0.337794927,1,3,1,2
3,conscious trial,1,18,folder/matchedM103.png,1,0.345476221,1,4,1,2
3,conscious trial,1,19,folder/matchedM006.png,1,0.326129842,1,2,1,2
3,conscious trial,1,20,folder/matchedM001.png,1,0.335245441,1,4,1,2
3,conscious trial,1,21,folder/matchedh18.jpg,2,0.376092476,1,3,2,1
3,conscious trial,1,22,folder/matchedh9.jpg,2,0.385723407,1,4,2,1
3,conscious trial,1,23,folder/matchedM001.png,1,0.426204974,1,3,1,2
3,conscious trial,1,24,folder/matchedM102.png,1,0.314560432,1,3,1,2
3,conscious trial,1,25,folder/matchedM003.png,1,0.306602057,1,3,1,2
3,conscious trial,1,26,folder/matchedh14.jpg,2,0.293778735,0,3,2,2
3,conscious trial,1,27,folder/matchedM021.png,1,0.561589167,1,1,1,2
3,conscious trial,1,28,folder/matchedM067.png,1,0.375356696,1,2,1,2
3,conscious trial,1,29,folder/matchedh24.jpg,2,0.434214819,1,3,2,1
3,conscious trial,1,30,folder/matchedh8.jpg,2,0.500220031,1,3,2,1
3,conscious trial,1,31,folder/matchedM067.png,1,0.485134947,1,1,1,2
3,conscious trial,1,32,folder/matchedM006.png,1,0.391164932,1,1,1,2
3,conscious trial,1,33,folder/matchedM021.png,1,0.324407312,1,1,1,2
3,conscious trial,1,34,folder/matchedM087.png,1,0.265568128,1,2,1,2
3,conscious trial,1,35,folder/matchedM067.png,1,0.274720127,1,1,1,2
3,conscious trial,1,36,folder/matchedM006.png,1,0.311453157,1,1,1,2
3,conscious trial,1,37,folder/matchedM017.png,1,0.284839761,1,3,1,2
3,conscious trial,1,38,folder/matchedh16.jpg,2,0.365738385,0,1,2,2
3,conscious trial,1,39,folder/matchedM087.png,1,0.420736897,1,1,1,2
3,conscious trial,1,40,folder/matchedM021.png,1,0.37503642,1,4,1,2
3,conscious trial,1,41,folder/matchedh7.jpg,2,0.4375511,1,3,2,1
3,conscious trial,1,42,folder/matchedM006.png,1,0.44718361,1,4,1,2
3,conscious trial,1,43,folder/matchedM103.png,1,0.374762967,1,4,1,2
3,conscious trial,1,44,folder/matchedM102.png,1,0.340578061,1,4,1,2
3,conscious trial,1,45,folder/matchedM003.png,1,0.384207192,1,4,1,2
3,conscious trial,1,46,folder/matchedM102.png,1,0.381423645,1,4,1,2
3,conscious trial,1,47,folder/matchedM023.png,1,0.363883248,1,2,1,2
3,conscious trial,1,48,folder/matchedh4.jpg,2,0.435762022,1,1,2,1
3,conscious trial,1,49,folder/matchedM023.png,1,0.384161106,1,2,1,2
3,conscious trial,1,50,folder/matchedM023.png,1,0.426101464,1,4,1,2
3,conscious trial,2,51,folder/matchedM017.png,1,0.441920129,1,1,1,2
3,conscious trial,2,52,folder/matchedh4.jpg,2,0.555268919,1,4,2,1
3,conscious trial,2,53,folder/matchedM067.png,1,1.134688476,1,3,1,2
3,conscious trial,2,54,folder/matchedM102.png,1,0.852463659,1,3,1,2
3,conscious trial,2,55,folder/matchedM103.png,1,0.544975744,1,2,1,2
3,conscious trial,2,56,folder/matchedM017.png,1,0.473982031,1,3,1,2
3,conscious trial,2,57,folder/matchedM006.png,1,0.322850463,1,2,1,2
3,conscious trial,2,58,folder/matchedM003.png,1,0.353315763,1,1,1,2
3,conscious trial,2,59,folder/matchedM087.png,1,0.362468964,1,4,1,2
3,conscious trial,2,60,folder/matchedM017.png,1,0.362225869,1,4,1,2
3,conscious trial,2,61,folder/matchedM003.png,1,0.341727057,1,1,1,2
3,conscious trial,2,62,folder/matchedM087.png,1,0.31156993,1,3,1,2
3,conscious trial,2,63,folder/matchedM001.png,1,0.383740339,1,4,1,2
3,conscious trial,2,64,folder/matchedM003.png,1,0.323454654,1,2,1,2
3,conscious trial,2,65,folder/matchedh14.jpg,2,0.474604248,1,1,2,1
3,conscious trial,2,66,folder/matchedM067.png,1,0.364663223,1,2,1,2
3,conscious trial,2,67,folder/matchedM021.png,1,0.374193497,1,3,1,2
3,conscious trial,2,68,folder/matchedM023.png,1,0.384861737,1,1,1,2
3,conscious trial,2,69,folder/matchedM087.png,1,0.361915581,1,2,1,2
3,conscious trial,2,70,folder/matchedM006.png,1,0.324739445,1,1,1,2
3,conscious trial,2,71,folder/matchedh20.jpg,2,0.577636954,1,1,2,1
3,conscious trial,2,72,folder/matchedM021.png,1,0.556245145,1,1,1,2
3,conscious trial,2,73,folder/matchedM103.png,1,0.351666538,1,2,1,2
3,conscious trial,2,74,folder/matchedM067.png,1,0.374469762,1,3,1,2
3,conscious trial,2,75,folder/matchedM001.png,1,0.360013832,1,4,1,2
3,conscious trial,2,76,folder/matchedM001.png,1,0.304121367,1,2,1,2
3,conscious trial,2,77,folder/matchedh9.jpg,2,0.393785988,1,4,2,1
3,conscious trial,2,78,folder/matchedM006.png,1,0.463320509,1,4,1,2
3,conscious trial,2,79,folder/matchedh24.jpg,2,0.522838602,1,2,2,1
3,conscious trial,2,80,folder/matchedM102.png,1,0.434008369,1,1,1,2
3,conscious trial,2,81,folder/matchedM003.png,1,0.363541299,1,2,1,2
3,conscious trial,2,82,folder/matchedM087.png,1,0.4449849,1,3,1,2
3,conscious trial,2,83,folder/matchedM023.png,1,0.44721558,1,4,1,2
3,conscious trial,2,84,folder/matchedM006.png,1,0.352965822,1,1,1,2
3,conscious trial,2,85,folder/matchedh18.jpg,2,0.415988942,1,3,2,1
3,conscious trial,2,86,folder/matchedM021.png,1,0.50314486,1,4,1,2
3,conscious trial,2,87,folder/matchedM102.png,1,0.401065948,1,1,1,2
3,conscious trial,2,88,folder/matchedh11.jpg,2,0.490502879,1,2,2,1
3,conscious trial,2,89,folder/matchedM103.png,1,0.360871679,1,3,1,2
3,conscious trial,2,90,folder/matchedM017.png,1,0.430018766,1,4,1,2
3,conscious trial,2,91,folder/matchedh16.jpg,2,0.472482564,1,2,2,1
3,conscious trial,2,92,folder/matchedh8.jpg,2,0.412128733,1,1,2,1
3,conscious trial,2,93,folder/matchedM102.png,1,0.335204851,1,3,1,2
3,conscious trial,2,94,folder/matchedM103.png,1,0.350520858,1,1,1,2
3,conscious trial,2,95,folder/matchedM023.png,1,0.352301887,1,1,1,2
3,conscious trial,2,96,folder/matchedM023.png,1,0.335709438,1,4,1,2
3,conscious trial,2,97,folder/matchedM067.png,1,0.302770494,1,4,1,2
3,conscious trial,2,98,folder/matchedM021.png,1,0.27982141,1,1,1,2
3,conscious trial,2,99,folder/matchedM001.png,1,0.30394485,1,4,1,2
3,conscious trial,2,100,folder/matchedh7.jpg,2,0.323201174,0,3,2,2
3,experimental trial,1,1,folder/matchedM096.png,1,1.053301717,1,3,2,3
3,experimental trial,1,2,folder/matchedh19.jpg,2,1.213875443,1,4,1,4
3,experimental trial,1,3,folder/matchedM016.png,1,1.244932672,1,4,1,4
3,experimental trial,1,4,folder/matchedM024.png,1,1.432658406,1,1,1,1
3,experimental trial,1,5,folder/matchedM072.png,1,1.554608886,1,4,1,4
3,experimental trial,1,6,folder/matchedM100.png,1,1.083535188,1,2,1,2
3,experimental trial,1,7,folder/matchedM094.png,1,1.125249604,1,2,1,2
3,experimental trial,1,8,folder/matchedM072.png,1,1.373100769,1,4,2,4
3,experimental trial,1,9,folder/matchedM004.png,1,1.486198117,1,3,2,3
3,experimental trial,1,10,folder/matchedh10.jpg,2,1.162800298,1,4,1,4
3,experimental trial,1,11,folder/matchedM098.png,1,0.965137912,1,1,1,1
3,experimental trial,1,12,folder/matchedh15.jpg,2,1.807587793,1,1,2,1
3,experimental trial,1,13,folder/matchedM098.png,1,1.3906102,1,1,1,1
3,experimental trial,1,14,folder/matchedM019.png,1,0.714641086,1,4,1,4
3,experimental trial,1,15,folder/matchedM072.png,1,1.703310829,1,3,2,3
3,experimental trial,1,16,folder/matchedM019.png,1,1.348819616,1,3,1,3
3,experimental trial,1,17,folder/matchedh5.jpg,2,1.165168807,1,1,1,1
3,experimental trial,1,18,folder/matchedh1.jpg,2,1.42993958,1,4,2,4
3,experimental trial,1,19,folder/matchedM024.png,1,1.395237926,1,1,1,1
3,experimental trial,1,20,folder/matchedM020.png,1,1.654111971,1,4,1,4
3,experimental trial,1,21,folder/matchedM024.png,1,1.280020804,1,3,2,3
3,experimental trial,1,22,folder/matchedM016.png,1,1.102198686,1,3,1,3
3,experimental trial,1,23,folder/matchedM016.png,1,1.042939671,1,2,2,2
3,experimental trial,1,24,folder/matchedM004.png,1,1.534769897,1,2,1,2
3,experimental trial,1,25,folder/matchedM020.png,1,1.171661685,1,4,1,4
3,experimental trial,1,26,folder/matchedM100.png,1,1.052852389,1,2,2,2
3,experimental trial,1,27,folder/matchedM019.png,1,1.223845477,1,3,2,3
3,experimental trial,1,28,folder/matchedh3.jpg,2,1.603229332,1,3,2,3
3,experimental trial,1,29,folder/matchedM004.png,1,1.463800281,1,3,2,3
3,experimental trial,1,30,folder/matchedM019.png,1,1.583091295,1,2,1,2
3,experimental trial,1,31,folder/matchedh21.jpg,2,1.578675541,1,3,1,3
3,experimental trial,1,32,folder/matchedM094.png,1,1.455943078,1,1,1,1
3,experimental trial,1,33,folder/matchedh23.jpg,2,2.214859899,1,1,2,1
3,experimental trial,1,34,folder/matchedM100.png,1,1.793758298,1,1,2,1
3,experimental trial,1,35,folder/matchedM004.png,1,1.073731131,1,1,2,1
3,experimental trial,1,36,folder/matchedM072.png,1,1.304238597,1,4,2,4
3,experimental trial,1,37,folder/matchedM094.png,1,1.424094159,1,4,2,4
3,experimental trial,1,38,folder/matchedM098.png,1,1.004022281,1,4,1,4
3,experimental trial,1,39,folder/matchedh22.jpg,2,1.335588496,1,2,2,2
3,experimental trial,1,40,folder/matchedM020.png,1,1.015681847,1,3,1,3
3,experimental trial,1,41,folder/matchedM096.png,1,1.442571598,1,2,1,2
3,experimental trial,1,42,folder/matchedM016.png,1,0.937212439,1,3,1,3
3,experimental trial,1,43,folder/matchedM096.png,1,1.044924679,1,3,1,3
3,experimental trial,1,44,folder/matchedh6.jpg,2,0.864834198,1,2,2,2
3,experimental trial,1,45,folder/matchedM098.png,1,1.466691667,1,1,2,1
3,experimental trial,1,46,folder/matchedM100.png,1,0.893424336,1,2,2,2
3,experimental trial,1,47,folder/matchedM020.png,1,1.362203656,1,1,2,1
3,experimental trial,1,48,folder/matchedM096.png,1,1.194177858,1,4,1,4
3,experimental trial,1,49,folder/matchedM094.png,1,0.953932361,1,4,1,4
3,experimental trial,1,50,folder/matchedM024.png,1,1.217647845,1,4,2,4
3,experimental trial,2,51,folder/matchedM072.png,1,1.146022132,1,1,2,1
3,experimental trial,2,52,folder/matchedM098.png,1,0.886362991,1,3,2,3
3,experimental trial,2,53,folder/matchedM100.png,1,1.176872753,1,1,2,1
3,experimental trial,2,54,folder/matchedh15.jpg,2,0.874879543,1,2,2,2
3,experimental trial,2,55,folder/matchedM004.png,1,1.793906117,1,3,1,3
3,experimental trial,2,56,folder/matchedh23.jpg,2,1.84417734,1,3,1,3
3,experimental trial,2,57,folder/matchedh3.jpg,2,1.326368611,0,4,2,1
3,experimental trial,2,58,folder/matchedM096.png,1,1.423377078,1,4,2,4
3,experimental trial,2,59,folder/matchedM100.png,1,1.113218273,1,2,1,2
3,experimental trial,2,60,folder/matchedM016.png,1,1.222871383,1,4,2,4
3,experimental trial,2,61,folder/matchedM024.png,1,1.394415718,1,3,1,3
3,experimental trial,2,62,folder/matchedM096.png,1,1.150635527,1,2,2,2
3,experimental trial,2,63,folder/matchedM019.png,1,1.327334796,1,1,2,1
3,experimental trial,2,64,folder/matchedh10.jpg,2,1.54416089,1,3,1,3
3,experimental trial,2,65,folder/matchedM020.png,1,1.18391744,1,3,2,3
3,experimental trial,2,66,folder/matchedM072.png,1,0.964618476,1,2,1,2
3,experimental trial,2,67,folder/matchedM098.png,1,0.999921806,1,4,1,4
3,experimental trial,2,68,folder/matchedM100.png,1,1.283707421,1,3,1,3
3,experimental trial,2,69,folder/matchedM072.png,1,1.25421882,1,1,1,1
3,experimental trial,2,70,folder/matchedM096.png,1,1.611206782,1,2,1,2
3,experimental trial,2,71,folder/matchedM094.png,1,1.372201546,1,2,2,2
3,experimental trial,2,72,folder/matchedh6.jpg,2,2.921683876,1,1,1,1
3,experimental trial,2,73,folder/matchedM096.png,1,1.533588612,1,1,1,1
3,experimental trial,2,74,folder/matchedM094.png,1,1.536692985,1,2,1,2
3,experimental trial,2,75,folder/matchedM098.png,1,1.123454049,1,1,2,1
3,experimental trial,2,76,folder/matchedM019.png,1,1.244096088,1,4,2,4
3,experimental trial,2,77,folder/matchedh19.jpg,2,3.205464144,1,2,1,2
3,experimental trial,2,78,folder/matchedM098.png,1,1.312476267,1,1,2,1
3,experimental trial,2,79,folder/matchedM020.png,1,1.34241409,1,3,2,3
3,experimental trial,2,80,folder/matchedM020.png,1,1.059584988,1,2,2,2
3,experimental trial,2,81,folder/matchedM019.png,1,0.937359269,1,1,1,1
3,experimental trial,2,82,folder/matchedM024.png,1,0.851310671,1,4,2,4
3,experimental trial,2,83,folder/matchedM094.png,1,1.514341089,1,4,2,4
3,experimental trial,2,84,folder/matchedM004.png,1,1.323401178,1,2,1,2
3,experimental trial,2,85,folder/matchedM024.png,1,0.862712574,1,1,1,1
3,experimental trial,2,86,folder/matchedh22.jpg,2,0.704605093,1,2,2,2
3,experimental trial,2,87,folder/matchedM016.png,1,0.990224176,1,1,1,1
3,experimental trial,2,88,folder/matchedM016.png,1,1.401044783,1,4,1,4
3,experimental trial,2,89,folder/matchedM019.png,1,1.034099294,1,1,1,1
3,experimental trial,2,90,folder/matchedM004.png,1,2.24353666,1,4,2,4
3,experimental trial,2,91,folder/matchedM024.png,1,0.854062888,1,3,2,3
3,experimental trial,2,92,folder/matchedM016.png,1,1.404201343,1,3,1,3
3,experimental trial,2,93,folder/matchedM100.png,1,1.672610707,1,2,1,2
3,experimental trial,2,94,folder/matchedM020.png,1,1.294916152,1,3,1,3
3,experimental trial,2,95,folder/matchedh5.jpg,2,1.612546697,1,3,2,3
3,experimental trial,2,96,folder/matchedM072.png,1,1.018262005,1,2,2,2
3,experimental trial,2,97,folder/matchedh21.jpg,2,1.423777485,1,4,1,4
3,experimental trial,2,98,folder/matchedh1.jpg,2,1.906249718,1,3,2,3
3,experimental trial,2,99,folder/matchedM094.png,1,1.444440123,1,1,1,1
3,experimental trial,2,100,folder/matchedM004.png,1,1.472897987,1,2,2,2
3,experimental trial,3,101,folder/matchedM016.png,1,0.996425399,1,4,2,4
3,experimental trial,3,102,folder/matchedM094.png,1,1.634076107,1,2,2,2
3,experimental trial,3,103,folder/matchedM016.png,1,1.024894383,1,1,1,1
3,experimental trial,3,104,folder/matchedM024.png,1,1.174895982,1,4,1,4
3,experimental trial,3,105,folder/matchedM019.png,1,1.25431339,1,4,1,4
3,experimental trial,3,106,folder/matchedh21.jpg,2,0.883954978,1,4,1,4
3,experimental trial,3,107,folder/matchedM020.png,1,1.286039013,1,4,1,4
3,experimental trial,3,108,folder/matchedM098.png,1,1.220800717,1,3,1,3
3,experimental trial,3,109,folder/matchedM100.png,1,1.334260435,1,2,1,2
3,experimental trial,3,110,folder/matchedM019.png,1,1.863813007,1,4,2,4
3,experimental trial,3,111,folder/matchedM094.png,1,2.465615269,1,3,1,3
3,experimental trial,3,112,folder/matchedM004.png,1,0.893642522,1,3,2,3
3,experimental trial,3,113,folder/matchedM098.png,1,1.463977299,1,1,1,1
3,experimental trial,3,114,folder/matchedh3.jpg,2,1.003758173,1,1,1,1
3,experimental trial,3,115,folder/matchedh6.jpg,2,1.183827203,1,1,2,1
3,experimental trial,3,116,folder/matchedM096.png,1,1.274117027,1,2,1,2
3,experimental trial,3,117,folder/matchedh1.jpg,2,0.985755272,1,3,1,3
3,experimental trial,3,118,folder/matchedM094.png,1,0.794990401,1,1,1,1
3,experimental trial,3,119,folder/matchedM098.png,1,1.324248946,1,2,2,2
3,experimental trial,3,120,folder/matchedM098.png,1,1.020959922,1,3,1,3
3,experimental trial,3,121,folder/matchedM016.png,1,0.853367979,1,2,2,2
3,experimental trial,3,122,folder/matchedM072.png,1,1.074717451,1,3,2,3
3,experimental trial,3,123,folder/matchedM004.png,1,0.92865332,1,4,2,4
3,experimental trial,3,124,folder/matchedh19.jpg,2,2.652982394,1,3,2,3
3,experimental trial,3,125,folder/matchedh15.jpg,2,1.014638637,1,2,1,2
3,experimental trial,3,126,folder/matchedM100.png,1,1.244299004,1,1,1,1
3,experimental trial,3,127,folder/matchedh5.jpg,2,1.724122203,1,4,2,4
3,experimental trial,3,128,folder/matchedM016.png,1,1.141598735,1,3,1,3
3,experimental trial,3,129,folder/matchedM019.png,1,1.637234303,1,3,2,3
3,experimental trial,3,130,folder/matchedM004.png,1,1.012753673,1,3,2,3
3,experimental trial,3,131,folder/matchedM019.png,1,1.061005342,1,3,2,3
3,experimental trial,3,132,folder/matchedh10.jpg,2,1.740983876,1,4,2,4
3,experimental trial,3,133,folder/matchedM072.png,1,1.092288919,1,1,1,1
3,experimental trial,3,134,folder/matchedM020.png,1,1.132088596,1,4,2,4
3,experimental trial,3,135,folder/matchedM004.png,1,1.522688566,1,1,2,1
3,experimental trial,3,136,folder/matchedM096.png,1,1.539650874,1,4,1,4
3,experimental trial,3,137,folder/matchedM024.png,1,1.172713948,1,2,1,2
3,experimental trial,3,138,folder/matchedh23.jpg,2,2.284926552,1,2,1,2
3,experimental trial,3,139,folder/matchedM024.png,1,1.714704353,1,3,2,3
3,experimental trial,3,140,folder/matchedM100.png,1,1.13414619,1,4,1,4
3,experimental trial,3,141,folder/matchedM096.png,1,0.953079521,1,2,1,2
3,experimental trial,3,142,folder/matchedM072.png,1,1.503894122,1,3,2,3
3,experimental trial,3,143,folder/matchedM072.png,1,1.287086799,1,1,2,1
3,experimental trial,3,144,folder/matchedM096.png,1,1.061239498,1,1,2,1
3,experimental trial,3,145,folder/matchedM100.png,1,0.753486781,1,2,2,2
3,experimental trial,3,146,folder/matchedh22.jpg,2,2.093892232,1,1,2,1
3,experimental trial,3,147,folder/matchedM094.png,1,1.535549049,1,1,1,1
3,experimental trial,3,148,folder/matchedM020.png,1,1.441710819,1,3,1,3
3,experimental trial,3,149,folder/matchedM024.png,1,1.101194832,1,1,1,1
3,experimental trial,3,150,folder/matchedM020.png,1,1.64333709,1,4,1,4
4,conscious trial,1,1,folder/matchedh4.jpg,2,0.688767466,1,4,2,1
4,conscious trial,1,2,folder/matchedh7.jpg,2,0.752735343,1,3,2,1
4,conscious trial,1,3,folder/matchedh7.jpg,2,0.741535506,1,4,2,1
4,conscious trial,1,4,folder/matchedM023.png,1,0.577620116,1,4,1,2
4,conscious trial,1,5,folder/matchedh11.jpg,2,0.521469104,1,3,2,1
4,conscious trial,1,6,folder/matchedh24.jpg,2,0.48580686,1,4,2,1
4,conscious trial,1,7,folder/matchedh4.jpg,2,0.58464414,1,2,2,1
4,conscious trial,1,8,folder/matchedh9.jpg,2,0.505283499,1,2,2,1
4,conscious trial,1,9,folder/matchedM021.png,1,0.463929689,1,3,1,2
4,conscious trial,1,10,folder/matchedM006.png,1,0.454858089,1,3,1,2
4,conscious trial,1,11,folder/matchedh9.jpg,2,0.498278842,1,4,2,1
4,conscious trial,1,12,folder/matchedh20.jpg,2,0.496207883,1,3,2,1
4,conscious trial,1,13,folder/matchedh11.jpg,2,0.405246222,1,4,2,1
4,conscious trial,1,14,folder/matchedh16.jpg,2,0.385271523,1,4,2,1
4,conscious trial,1,15,folder/matchedM003.png,1,0.504413362,1,3,1,2
4,conscious trial,1,16,folder/matchedM017.png,1,0.49346476,1,1,1,2
4,conscious trial,1,17,folder/matchedh7.jpg,2,0.523000634,1,2,2,1
4,conscious trial,1,18,folder/matchedh14.jpg,2,0.445382465,1,4,2,1
4,conscious trial,1,19,folder/matchedM001.png,1,0.520549735,1,4,1,2
4,conscious trial,1,20,folder/matchedM067.png,1,0.445850894,1,1,1,2
4,conscious trial,1,21,folder/matchedh18.jpg,2,0.474926494,1,3,2,1
4,conscious trial,1,22,folder/matchedh4.jpg,2,0.505322667,1,3,2,1
4,conscious trial,1,23,folder/matchedM102.png,1,0.464053068,1,4,1,2
4,conscious trial,1,24,folder/matchedh11.jpg,2,0.565193648,1,4,2,1
4,conscious trial,1,25,folder/matchedh14.jpg,2,0.52441179,1,3,2,1
4,conscious trial,1,26,folder/matchedh24.jpg,2,0.504548748,1,1,2,1
4,conscious trial,1,27,folder/matchedh16.jpg,2,0.48465874,1,4,2,1
4,conscious trial,1,28,folder/matchedh14.jpg,2,0.364544265,1,4,2,1
4,conscious trial,1,29,folder/matchedh24.jpg,2,0.474221198,1,3,2,1
4,conscious trial,1,30,folder/matchedh20.jpg,2,0.445345082,1,1,2,1
4,conscious trial,1,31,folder/matchedh18.jpg,2,0.39078795,1,4,2,1
4,conscious trial,1,32,folder/matchedh20.jpg,2,0.464886961,1,2,2,1
4,conscious trial,1,33,folder/matchedh9.jpg,2,0.361003174,1,1,2,1
4,conscious trial,1,34,folder/matchedh9.jpg,2,0.424491426,1,2,2,1
4,conscious trial,1,35,folder/matchedh7.jpg,2,0.371160918,1,1,2,1
4,conscious trial,1,36,folder/matchedh11.jpg,2,0.40966133,1,2,2,1
4,conscious trial,1,37,folder/matchedh24.jpg,2,0.29773809,1,1,2,1
4,conscious trial,1,38,folder/matchedh14.jpg,2,0.36195566,1,2,2,1
4,conscious trial,1,39,folder/matchedM087.png,1,0.453062789,1,2,1,2
4,conscious trial,1,40,folder/matchedh16.jpg,2,0.411716627,1,4,2,1
4,conscious trial,1,41,folder/matchedh20.jpg,2,0.34612554,1,3,2,1
4,conscious trial,1,42,folder/matchedh8.jpg,2,0.383613543,1,4,2,1
4,conscious trial,1,43,folder/matchedh8.jpg,2,0.362782098,1,1,2,1
4,conscious trial,1,44,folder/matchedh16.jpg,2,0.463319859,1,4,2,1
4,conscious trial,1,45,folder/matchedh18.jpg,2,0.451031451,1,3,2,1
4,conscious trial,1,46,folder/matchedh8.jpg,2,0.334972489,1,4,2,1
4,conscious trial,1,47,folder/matchedh8.jpg,2,0.430279581,1,4,2,1
4,conscious trial,1,48,folder/matchedM103.png,1,0.483678311,1,1,1,2
4,conscious trial,1,49,folder/matchedh4.jpg,2,0.774813933,1,4,2,1
4,conscious trial,1,50,folder/matchedh18.jpg,2,0.391796198,1,4,2,1
4,conscious trial,2,51,folder/matchedh11.jpg,2,0.642351641,1,1,2,1
4,conscious trial,2,52,folder/matchedh8.jpg,2,0.473869768,1,2,2,1
4,conscious trial,2,53,folder/matchedM006.png,1,0.532602149,1,1,1,2
4,conscious trial,2,54,folder/matchedh16.jpg,2,0.423776225,1,4,2,1
4,conscious trial,2,55,folder/matchedh11.jpg,2,0.416969146,1,3,2,1
4,conscious trial,2,56,folder/matchedh24.jpg,2,0.520417668,1,4,2,1
4,conscious trial,2,57,folder/matchedh20.jpg,2,0.385046017,1,1,2,1
4,conscious trial,2,58,folder/matchedh16.jpg,2,0.493334212,1,2,2,1
4,conscious trial,2,59,folder/matchedM017.png,1,0.544008721,1,3,1,2
4,conscious trial,2,60,folder/matchedh7.jpg,2,0.393432999,1,4,2,1
4,conscious trial,2,61,folder/matchedM087.png,1,0.514446271,1,1,1,2
4,conscious trial,2,62,folder/matchedh8.jpg,2,0.572149922,1,2,2,1
4,conscious trial,2,63,folder/matchedh9.jpg,2,0.525194856,1,2,2,1
4,conscious trial,2,64,folder/matchedh18.jpg,2,0.533089983,1,2,2,1
4,conscious trial,2,65,folder/matchedh14.jpg,2,0.414001377,1,1,2,1
4,conscious trial,2,66,folder/matchedh16.jpg,2,0.47306365,1,3,2,1
4,conscious trial,2,67,folder/matchedM102.png,1,0.493057063,1,4,1,2
4,conscious trial,2,68,folder/matchedh4.jpg,2,0.413337348,1,1,2,1
4,conscious trial,2,69,folder/matchedh24.jpg,2,0.473496782,1,2,2,1
4,conscious trial,2,70,folder/matchedh4.jpg,2,0.380967858,1,1,2,1
4,conscious trial,2,71,folder/matchedh9.jpg,2,0.432560925,1,1,2,1
4,conscious trial,2,72,folder/matchedh14.jpg,2,0.385345105,1,1,2,1
4,conscious trial,2,73,folder/matchedM023.png,1,0.542766914,1,4,1,2
4,conscious trial,2,74,folder/matchedh14.jpg,2,0.40465794,1,3,2,1
4,conscious trial,2,75,folder/matchedh14.jpg,2,0.382276891,1,1,2,1
4,conscious trial,2,76,folder/matchedh9.jpg,2,0.425387274,1,3,2,1
4,conscious trial,2,77,folder/matchedh7.jpg,2,0.433314416,1,2,2,1
4,conscious trial,2,78,folder/matchedM067.png,1,0.463170912,1,3,1,2
4,conscious trial,2,79,folder/matchedh8.jpg,2,0.441830306,1,2,2,1
4,conscious trial,2,80,folder/matchedh11.jpg,2,0.374185772,1,1,2,1
4,conscious trial,2,81,folder/matchedh20.jpg,2,0.356308697,1,1,2,1
4,conscious trial,2,82,folder/matchedM003.png,1,0.413551039,1,3,1,2
4,conscious trial,2,83,folder/matchedh7.jpg,2,0.523832159,1,4,2,1
4,conscious trial,2,84,folder/matchedh18.jpg,2,0.344044863,1,4,2,1
4,conscious trial,2,85,folder/matchedh18.jpg,2,0.442929854,1,2,2,1
4,conscious trial,2,86,folder/matchedh24.jpg,2,0.424314725,1,2,2,1
4,conscious trial,2,87,folder/matchedM021.png,1,0.44916531,1,3,1,2
4,conscious trial,2,88,folder/matchedh4.jpg,2,0.485032087,1,3,2,1
4,conscious trial,2,89,folder/matchedh20.jpg,2,0.57105349,1,2,2,1
4,conscious trial,2,90,folder/matchedh16.jpg,2,0.425538535,1,4,2,1
4,conscious trial,2,91,folder/matchedh9.jpg,2,0.433263909,1,3,2,1
4,conscious trial,2,92,folder/matchedM103.png,1,0.904360783,1,1,1,2
4,conscious trial,2,93,folder/matchedh20.jpg,2,0.393719429,1,3,2,1
4,conscious trial,2,94,folder/matchedh24.jpg,2,0.563441097,1,2,2,1
4,conscious trial,2,95,folder/matchedh8.jpg,2,0.422813769,1,1,2,1
4,conscious trial,2,96,folder/matchedh4.jpg,2,0.463867678,1,2,2,1
4,conscious trial,2,97,folder/matchedh11.jpg,2,0.329103245,1,1,2,1
4,conscious trial,2,98,folder/matchedh7.jpg,2,0.434655688,1,1,2,1
4,conscious trial,2,99,folder/matchedM001.png,1,0.526652958,1,3,1,2
4,conscious trial,2,100,folder/matchedh18.jpg,2,0.324807129,1,4,2,1
4,experimental trial,1,1,folder/matchedh15.jpg,2,1.387610876,1,3,1,3
4,experimental trial,1,2,folder/matchedh15.jpg,2,1.33958214,1,3,1,3
4,experimental trial,1,3,folder/matchedM016.png,1,1.843705888,1,1,2,1
4,experimental trial,1,4,folder/matchedM100.png,1,1.866015488,1,4,1,4
4,experimental trial,1,5,folder/matchedh23.jpg,2,1.555281059,1,3,1,3
4,experimental trial,1,6,folder/matchedh10.jpg,2,1.583918658,1,2,1,2
4,experimental trial,1,7,folder/matchedh1.jpg,2,1.213819316,1,1,1,1
4,experimental trial,1,8,folder/matchedh3.jpg,2,0.994415267,1,3,1,3
4,experimental trial,1,9,folder/matchedh22.jpg,2,1.835110438,1,2,1,2
4,experimental trial,1,10,folder/matchedh21.jpg,2,1.012914555,1,4,2,4
4,experimental trial,1,11,folder/matchedh15.jpg,2,1.445399687,1,4,2,4
4,experimental trial,1,12,folder/matchedh6.jpg,2,0.975816839,1,1,2,1
4,experimental trial,1,13,folder/matchedh21.jpg,2,1.133425091,1,1,2,1
4,experimental trial,1,14,folder/matchedM019.png,1,1.00530432,1,4,1,4
4,experimental trial,1,15,folder/matchedh22.jpg,2,1.884309462,1,2,1,2
4,experimental trial,1,16,folder/matchedh22.jpg,2,1.957093666,1,1,1,1
4,experimental trial,1,17,folder/matchedM020.png,1,1.325283969,1,1,1,1
4,experimental trial,1,18,folder/matchedh23.jpg,2,1.035514427,1,3,2,3
4,experimental trial,1,19,folder/matchedh22.jpg,2,1.624330504,1,4,1,4
4,experimental trial,1,20,folder/matchedM004.png,1,1.187485237,1,1,2,1
4,experimental trial,1,21,folder/matchedh3.jpg,2,1.394010969,1,4,1,4
4,experimental trial,1,22,folder/matchedh19.jpg,2,2.134481817,1,4,1,4
4,experimental trial,1,23,folder/matchedh21.jpg,2,1.094737142,1,4,1,4
4,experimental trial,1,24,folder/matchedh10.jpg,2,1.114119124,1,3,1,3
4,experimental trial,1,25,folder/matchedh5.jpg,2,1.025180411,1,3,2,3
4,experimental trial,1,26,folder/matchedM024.png,1,1.707665103,1,3,1,3
4,experimental trial,1,27,folder/matchedM098.png,1,1.236703054,1,1,1,1
4,experimental trial,1,28,folder/matchedh23.jpg,2,1.327531024,1,2,2,2
4,experimental trial,1,29,folder/matchedh19.jpg,2,1.614568329,1,4,1,4
4,experimental trial,1,30,folder/matchedh3.jpg,2,0.984544638,1,4,2,4
4,experimental trial,1,31,folder/matchedM094.png,1,1.372160704,1,2,1,2
4,experimental trial,1,32,folder/matchedh1.jpg,2,1.534381581,1,1,1,1
4,experimental trial,1,33,folder/matchedh10.jpg,2,2.389919176,1,2,1,2
4,experimental trial,1,34,folder/matchedh1.jpg,2,1.495217459,1,1,2,1
4,experimental trial,1,35,folder/matchedh10.jpg,2,1.645918722,1,2,1,2
4,experimental trial,1,36,folder/matchedh5.jpg,2,1.652277706,1,2,2,2
4,experimental trial,1,37,folder/matchedh6.jpg,2,1.134782761,1,4,1,4
4,experimental trial,1,38,folder/matchedh6.jpg,2,1.024326981,1,2,2,2
4,experimental trial,1,39,folder/matchedh19.jpg,2,1.613779395,1,2,2,2
4,experimental trial,1,40,folder/matchedh15.jpg,2,1.494056418,1,4,1,4
4,experimental trial,1,41,folder/matchedh23.jpg,2,2.163781994,1,2,1,2
4,experimental trial,1,42,folder/matchedh5.jpg,2,0.956077402,1,3,1,3
4,experimental trial,1,43,folder/matchedM072.png,1,1.172971954,1,2,1,2
4,experimental trial,1,44,folder/matchedh5.jpg,2,1.044569234,1,3,2,3
4,experimental trial,1,45,folder/matchedh3.jpg,2,0.8733604,1,3,1,3
4,experimental trial,1,46,folder/matchedM096.png,1,1.191104693,1,2,2,2
4,experimental trial,1,47,folder/matchedh1.jpg,2,1.461132642,1,4,1,4
4,experimental trial,1,48,folder/matchedh21.jpg,2,1.673926382,1,3,1,3
4,experimental trial,1,49,folder/matchedh19.jpg,2,1.204100885,1,3,1,3
4,experimental trial,1,50,folder/matchedh6.jpg,2,1.734217668,1,2,1,2
4,experimental trial,2,51,folder/matchedh19.jpg,2,1.915147809,1,3,1,3
4,experimental trial,2,52,folder/matchedM016.png,1,1.387236732,1,4,1,4
4,experimental trial,2,53,folder/matchedM098.png,1,1.121048236,1,2,2,2
4,experimental trial,2,54,folder/matchedh10.jpg,2,1.273717616,1,2,1,2
4,experimental trial,2,55,folder/matchedh1.jpg,2,1.283637489,1,1,2,1
4,experimental trial,2,56,folder/matchedM019.png,1,1.454640539,1,3,2,3
4,experimental trial,2,57,folder/matchedh23.jpg,2,1.141888575,1,1,2,1
4,experimental trial,2,58,folder/matchedh10.jpg,2,1.114254018,1,3,2,3
4,experimental trial,2,59,folder/matchedh1.jpg,2,1.994818885,1,2,1,2
4,experimental trial,2,60,folder/matchedh10.jpg,2,1.44468405,1,4,2,4
4,experimental trial,2,61,folder/matchedh5.jpg,2,1.594938729,1,2,1,2
4,experimental trial,2,62,folder/matchedh23.jpg,2,1.422668553,1,2,1,2
4,experimental trial,2,63,folder/matchedh10.jpg,2,1.750860147,1,2,2,2
4,experimental trial,2,64,folder/matchedh22.jpg,2,1.011941506,1,4,2,4
4,experimental trial,2,65,folder/matchedM024.png,1,1.141613938,1,4,2,4
4,experimental trial,2,66,folder/matchedh15.jpg,2,1.655245365,1,4,1,4
4,experimental trial,2,67,folder/matchedh19.jpg,2,2.272132264,1,3,2,3
4,experimental trial,2,68,folder/matchedh19.jpg,2,2.495502747,1,2,2,2
4,experimental trial,2,69,folder/matchedh21.jpg,2,1.012944679,1,1,2,1
4,experimental trial,2,70,folder/matchedh21.jpg,2,0.952900628,1,4,2,4
4,experimental trial,2,71,folder/matchedh6.jpg,2,1.899745231,1,1,2,1
4,experimental trial,2,72,folder/matchedh6.jpg,2,1.858882005,1,4,1,4
4,experimental trial,2,73,folder/matchedM004.png,1,1.574373478,1,1,2,1
4,experimental trial,2,74,folder/matchedM020.png,1,1.583414218,1,1,1,1
4,experimental trial,2,75,folder/matchedh21.jpg,2,1.55502956,1,1,2,1
4,experimental trial,2,76,folder/matchedh15.jpg,2,1.494612252,1,3,1,3
4,experimental trial,2,77,folder/matchedM096.png,1,1.313570782,1,3,1,3
4,experimental trial,2,78,folder/matchedh3.jpg,2,1.229983666,1,1,1,1
4,experimental trial,2,79,folder/matchedM094.png,1,1.233673065,1,1,1,1
4,experimental trial,2,80,folder/matchedh19.jpg,2,2.363132657,1,3,2,3
4,experimental trial,2,81,folder/matchedh15.jpg,2,1.496919623,1,1,1,1
4,experimental trial,2,82,folder/matchedh1.jpg,2,1.165003669,1,2,2,2
4,experimental trial,2,83,folder/matchedh5.jpg,2,1.083043162,1,4,2,4
4,experimental trial,2,84,folder/matchedh15.jpg,2,1.13058069,1,2,1,2
4,experimental trial,2,85,folder/matchedh22.jpg,2,1.154286599,1,2,1,2
4,experimental trial,2,86,folder/matchedh3.jpg,2,1.094706387,1,3,1,3
4,experimental trial,2,87,folder/matchedh22.jpg,2,1.044025922,1,3,2,3
4,experimental trial,2,88,folder/matchedh6.jpg,2,1.734335066,1,4,1,4
4,experimental trial,2,89,folder/matchedh3.jpg,2,0.904822096,1,4,1,4
4,experimental trial,2,90,folder/matchedh5.jpg,2,1.144028605,1,4,2,4
4,experimental trial,2,91,folder/matchedh6.jpg,2,1.431083365,1,3,1,3
4,experimental trial,2,92,folder/matchedh23.jpg,2,1.185708833,1,3,2,3
4,experimental trial,2,93,folder/matchedM072.png,1,1.373821741,1,2,1,2
4,experimental trial,2,94,folder/matchedh22.jpg,2,1.764976843,1,1,2,1
4,experimental trial,2,95,folder/matchedh3.jpg,2,1.01324212,1,4,2,4
4,experimental trial,2,96,folder/matchedh23.jpg,2,1.272260841,1,2,2,2
4,experimental trial,2,97,folder/matchedh1.jpg,2,1.793542198,1,1,1,1
4,experimental trial,2,98,folder/matchedh21.jpg,2,1.794284734,1,4,1,4
4,experimental trial,2,99,folder/matchedh5.jpg,2,1.075645403,1,4,2,4
4,experimental trial,2,100,folder/matchedM100.png,1,1.646106062,1,3,1,3
4,experimental trial,3,101,folder/matchedh3.jpg,2,1.320012454,1,2,1,2
4,experimental trial,3,102,folder/matchedh10.jpg,2,0.902317847,1,4,1,4
4,experimental trial,3,103,folder/matchedh10.jpg,2,0.840972895,1,4,2,4
4,experimental trial,3,104,folder/matchedh1.jpg,2,0.89699675,1,3,2,3
4,experimental trial,3,105,folder/matchedh1.jpg,2,1.248590089,1,2,2,2
4,experimental trial,3,106,folder/matchedh15.jpg,2,0.783801549,1,4,1,4
4,experimental trial,3,107,folder/matchedh21.jpg,2,0.843426419,1,2,2,2
4,experimental trial,3,108,folder/matchedh15.jpg,2,1.407502252,1,1,1,1
4,experimental trial,3,109,folder/matchedM098.png,1,0.911845245,1,3,1,3
4,experimental trial,3,110,folder/matchedh10.jpg,2,1.054217906,1,3,1,3
4,experimental trial,3,111,folder/matchedh5.jpg,2,1.422694624,1,1,1,1
4,experimental trial,3,112,folder/matchedM094.png,1,1.165043898,1,3,1,3
4,experimental trial,3,113,folder/matchedM100.png,1,1.05263803,1,2,2,2
4,experimental trial,3,114,folder/matchedM020.png,1,1.322209167,1,4,1,4
4,experimental trial,3,115,folder/matchedM004.png,1,1.142596092,1,2,2,2
4,experimental trial,3,116,folder/matchedh3.jpg,2,1.154793032,1,3,1,3
4,experimental trial,3,117,folder/matchedh22.jpg,2,1.189810352,1,3,2,3
4,experimental trial,3,118,folder/matchedh6.jpg,2,1.699308159,1,1,1,1
4,experimental trial,3,119,folder/matchedh19.jpg,2,2.08624511,1,1,1,1
4,experimental trial,3,120,folder/matchedh3.jpg,2,1.095122707,1,3,2,3
4,experimental trial,3,121,folder/matchedM024.png,1,1.372002247,1,3,1,3
4,experimental trial,3,122,folder/matchedh22.jpg,2,1.693525524,1,4,1,4
4,experimental trial,3,123,folder/matchedh23.jpg,2,1.045184313,1,1,2,1
4,experimental trial,3,124,folder/matchedh22.jpg,2,1.72395517,1,3,2,3
4,experimental trial,3,125,folder/matchedM072.png,1,1.777689827,1,4,2,4
4,experimental trial,3,126,folder/matchedh21.jpg,2,1.862152741,1,1,2,1
4,experimental trial,3,127,folder/matchedh23.jpg,2,2.043181087,1,4,2,4
4,experimental trial,3,128,folder/matchedh19.jpg,2,2.692102802,1,1,2,1
4,experimental trial,3,129,folder/matchedh23.jpg,2,1.175036597,1,1,2,1
4,experimental trial,3,130,folder/matchedh6.jpg,2,1.344105766,1,2,1,2
4,experimental trial,3,131,folder/matchedM019.png,1,1.242163158,1,1,2,1
4,experimental trial,3,132,folder/matchedh21.jpg,2,0.953929646,1,2,1,2
4,experimental trial,3,133,folder/matchedh5.jpg,2,1.049791077,1,4,2,4
4,experimental trial,3,134,folder/matchedh15.jpg,2,2.111900633,1,2,2,2
4,experimental trial,3,135,folder/matchedh22.jpg,2,1.225790527,1,2,2,2
4,experimental trial,3,136,folder/matchedh21.jpg,2,0.823813857,1,2,2,2
4,experimental trial,3,137,folder/matchedh15.jpg,2,3.843461768,1,4,1,4
4,experimental trial,3,138,folder/matchedh10.jpg,2,1.183038213,1,1,2,1
4,experimental trial,3,139,folder/matchedh23.jpg,2,1.432892315,1,1,1,1
4,experimental trial,3,140,folder/matchedh6.jpg,2,2.21391173,1,1,1,1
4,experimental trial,3,141,folder/matchedM016.png,1,1.123197427,1,3,2,3
4,experimental trial,3,142,folder/matchedh3.jpg,2,1.141663017,1,3,2,3
4,experimental trial,3,143,folder/matchedh1.jpg,2,1.611448344,1,2,1,2
4,experimental trial,3,144,folder/matchedh5.jpg,2,1.144377324,1,1,2,1
4,experimental trial,3,145,folder/matchedh19.jpg,2,1.433161016,1,2,1,2
4,experimental trial,3,146,folder/matchedh6.jpg,2,1.793999142,1,2,1,2
4,experimental trial,3,147,folder/matchedh19.jpg,2,1.673668568,1,2,2,2
4,experimental trial,3,148,folder/matchedh1.jpg,2,1.453011088,1,2,2,2
4,experimental trial,3,149,folder/matchedM096.png,1,2.012669501,1,3,1,3
4,experimental trial,3,150,folder/matchedh5.jpg,2,2.302004877,1,1,2,1
5,conscious trial,1,1,folder/matchedM021.png,1,0.669399214,1,4,1,2
5,conscious trial,1,2,folder/matchedM001.png,1,0.532021596,1,2,1,2
5,conscious trial,1,3,folder/matchedM087.png,1,0.47016834,1,2,1,2
5,conscious trial,1,4,folder/matchedM021.png,1,0.435390379,1,1,1,2
5,conscious trial,1,5,folder/matchedM087.png,1,0.468947871,1,1,1,2
5,conscious trial,1,6,folder/matchedM087.png,1,0.593970672,1,4,1,2
5,conscious trial,1,7,folder/matchedM067.png,1,0.401591489,1,3,1,2
5,conscious trial,1,8,folder/matchedM006.png,1,0.414012813,1,1,1,2
5,conscious trial,1,9,folder/matchedh4.jpg,2,0.764912523,1,3,2,1
5,conscious trial,1,10,folder/matchedM017.png,1,0.444006817,1,3,1,2
5,conscious trial,1,11,folder/matchedM003.png,1,0.539970912,1,2,1,2
5,conscious trial,1,12,folder/matchedM003.png,1,0.392576129,1,2,1,2
5,conscious trial,1,13,folder/matchedh20.jpg,2,0.51523928,1,2,2,1
5,conscious trial,1,14,folder/matchedM103.png,1,0.554137292,0,4,1,1
5,conscious trial,1,15,folder/matchedM103.png,1,0.511709678,1,1,1,2
5,conscious trial,1,16,folder/matchedh7.jpg,2,0.523032751,1,4,2,1
5,conscious trial,1,17,folder/matchedM067.png,1,0.603650971,1,1,1,2
5,conscious trial,1,18,folder/matchedM023.png,1,0.494363351,1,3,1,2
5,conscious trial,1,19,folder/matchedM017.png,1,0.394607716,1,3,1,2
5,conscious trial,1,20,folder/matchedM023.png,1,0.334776336,1,3,1,2
5,conscious trial,1,21,folder/matchedh8.jpg,2,0.615526687,1,2,2,1
5,conscious trial,1,22,folder/matchedM003.png,1,0.554639171,1,4,1,2
5,conscious trial,1,23,folder/matchedM103.png,1,0.633749804,1,1,1,2
5,conscious trial,1,24,folder/matchedM023.png,1,0.443665815,1,3,1,2
5,conscious trial,1,25,folder/matchedh18.jpg,2,0.855185925,1,2,2,1
5,conscious trial,1,26,folder/matchedM023.png,1,0.623892232,1,1,1,2
5,conscious trial,1,27,folder/matchedM103.png,1,0.387195547,1,3,1,2
5,conscious trial,1,28,folder/matchedM017.png,1,0.433744751,1,2,1,2
5,conscious trial,1,29,folder/matchedM102.png,1,0.504887539,1,1,1,2
5,conscious trial,1,30,folder/matchedM102.png,1,0.403937931,1,2,1,2
5,conscious trial,1,31,folder/matchedM067.png,1,0.373355526,1,2,1,2
5,conscious trial,1,32,folder/matchedM001.png,1,0.402953445,1,3,1,2
5,conscious trial,1,33,folder/matchedM102.png,1,0.51503618,1,2,1,2
5,conscious trial,1,34,folder/matchedh11.jpg,2,0.514252126,1,2,2,1
5,conscious trial,1,35,folder/matchedM001.png,1,0.403827435,1,4,1,2
5,conscious trial,1,36,folder/matchedM087.png,1,0.444762048,1,1,1,2
5,conscious trial,1,37,folder/matchedM006.png,1,0.376313144,1,4,1,2
5,conscious trial,1,38,folder/matchedM003.png,1,0.374304384,1,3,1,2
5,conscious trial,1,39,folder/matchedM102.png,1,0.334231148,1,2,1,2
5,conscious trial,1,40,folder/matchedM021.png,1,0.363041599,1,1,1,2
5,conscious trial,1,41,folder/matchedh9.jpg,2,0.313159498,0,1,2,2
5,conscious trial,1,42,folder/matchedM017.png,1,0.372645749,1,4,1,2
5,conscious trial,1,43,folder/matchedh24.jpg,2,0.482528958,1,1,2,1
5,conscious trial,1,44,folder/matchedM001.png,1,0.35502374,1,3,1,2
5,conscious trial,1,45,folder/matchedM006.png,1,0.361847815,1,1,1,2
5,conscious trial,1,46,folder/matchedM067.png,1,0.413554741,1,1,1,2
5,conscious trial,1,47,folder/matchedM006.png,1,0.411811686,1,4,1,2
5,conscious trial,1,48,folder/matchedh16.jpg,2,0.549415457,1,3,2,1
5,conscious trial,1,49,folder/matchedh14.jpg,2,0.453490993,1,4,2,1
5,conscious trial,1,50,folder/matchedM021.png,1,0.382420588,1,4,1,2
5,conscious trial,2,51,folder/matchedh8.jpg,2,0.746543154,1,2,2,1
5,conscious trial,2,52,folder/matchedh4.jpg,2,1.753507906,1,2,2,1
5,conscious trial,2,53,folder/matchedM087.png,1,2.494537551,1,1,1,2
5,conscious trial,2,54,folder/matchedh18.jpg,2,1.093253393,1,2,2,1
5,conscious trial,2,55,folder/matchedM023.png,1,0.596336154,1,3,1,2
5,conscious trial,2,56,folder/matchedM023.png,1,1.271074838,1,2,1,2
5,conscious trial,2,57,folder/matchedM003.png,1,0.644057512,1,1,1,2
5,conscious trial,2,58,folder/matchedM017.png,1,0.461740735,1,4,1,2
5,conscious trial,2,59,folder/matchedM087.png,1,0.432664108,1,3,1,2
5,conscious trial,2,60,folder/matchedM021.png,1,0.712758535,1,2,1,2
5,conscious trial,2,61,folder/matchedM067.png,1,0.494363118,1,4,1,2
5,conscious trial,2,62,folder/matchedh9.jpg,2,0.483358114,1,3,2,1
5,conscious trial,2,63,folder/matchedM102.png,1,0.544469406,1,1,1,2
5,conscious trial,2,64,folder/matchedM103.png,1,0.384340868,1,2,1,2
5,conscious trial,2,65,folder/matchedM021.png,1,0.294212224,1,4,1,2
5,conscious trial,2,66,folder/matchedM001.png,1,0.44179331,1,1,1,2
5,conscious trial,2,67,folder/matchedM006.png,1,0.333321688,1,4,1,2
5,conscious trial,2,68,folder/matchedM021.png,1,0.584453262,1,2,1,2
5,conscious trial,2,69,folder/matchedM102.png,1,0.342968021,1,2,1,2
5,conscious trial,2,70,folder/matchedM003.png,1,0.403153696,1,3,1,2
5,conscious trial,2,71,folder/matchedM103.png,1,0.392214379,1,1,1,2
5,conscious trial,2,72,folder/matchedM067.png,1,0.352639659,1,2,1,2
5,conscious trial,2,73,folder/matchedM102.png,1,0.401978934,1,2,1,2
5,conscious trial,2,74,folder/matchedM021.png,1,0.376243065,1,3,1,2
5,conscious trial,2,75,folder/matchedM102.png,1,0.473766442,1,4,1,2
5,conscious trial,2,76,folder/matchedh16.jpg,2,0.54272717,1,1,2,1
5,conscious trial,2,77,folder/matchedM087.png,1,0.392248503,1,2,1,2
5,conscious trial,2,78,folder/matchedM023.png,1,0.700933492,1,4,1,2
5,conscious trial,2,79,folder/matchedM017.png,1,0.396668351,1,1,1,2
5,conscious trial,2,80,folder/matchedM017.png,1,0.398618901,1,1,1,2
5,conscious trial,2,81,folder/matchedM006.png,1,0.404470698,1,2,1,2
5,conscious trial,2,82,folder/matchedM103.png,1,0.343473728,1,2,1,2
5,conscious trial,2,83,folder/matchedM103.png,1,0.424316338,1,3,1,2
5,conscious trial,2,84,folder/matchedM001.png,1,0.363252432,1,2,1,2
5,conscious trial,2,85,folder/matchedh11.jpg,2,0.570280958,0,3,2,2
5,conscious trial,2,86,folder/matchedM003.png,1,0.493213416,1,3,1,2
5,conscious trial,2,87,folder/matchedM067.png,1,1.531419274,1,4,1,2
5,conscious trial,2,88,folder/matchedh20.jpg,2,0.612846604,1,3,2,1
5,conscious trial,2,89,folder/matchedM001.png,1,0.551147493,1,2,1,2
5,conscious trial,2,90,folder/matchedM087.png,1,0.431844806,1,4,1,2
5,conscious trial,2,91,folder/matchedh14.jpg,2,0.541190816,1,1,2,1
5,conscious trial,2,92,folder/matchedM067.png,1,0.400421354,1,3,1,2
5,conscious trial,2,93,folder/matchedM023.png,1,0.501621938,1,2,1,2
5,conscious trial,2,94,folder/matchedM006.png,1,0.363567502,1,2,1,2
5,conscious trial,2,95,folder/matchedM003.png,1,0.511444653,1,1,1,2
5,conscious trial,2,96,folder/matchedM001.png,1,0.349214394,1,2,1,2
5,conscious trial,2,97,folder/matchedh7.jpg,2,0.331469799,0,2,2,2
5,conscious trial,2,98,folder/matchedM006.png,1,0.388306374,1,1,1,2
5,conscious trial,2,99,folder/matchedM017.png,1,0.391574031,1,2,1,2
5,conscious trial,2,100,folder/matchedh24.jpg,2,0.50619818,1,2,2,1
5,experimental trial,1,1,folder/matchedM016.png,1,1.456543029,1,2,1,2
5,experimental trial,1,2,folder/matchedM024.png,1,0.996748543,1,4,1,4
5,experimental trial,1,3,folder/matchedM019.png,1,0.661657382,1,3,1,3
5,experimental trial,1,4,folder/matchedM094.png,1,1.200741703,1,2,2,2
5,experimental trial,1,5,folder/matchedh10.jpg,2,1.189413615,1,2,1,2
5,experimental trial,1,6,folder/matchedM020.png,1,1.534669732,1,1,2,1
5,experimental trial,1,7,folder/matchedh23.jpg,2,0.642265961,1,3,2,3
5,experimental trial,1,8,folder/matchedM004.png,1,0.692152122,1,1,2,1
5,experimental trial,1,9,folder/matchedM094.png,1,0.563458714,1,1,2,1
5,experimental trial,1,10,folder/matchedh5.jpg,2,1.462761871,1,3,1,3
5,experimental trial,1,11,folder/matchedM016.png,1,0.68357694,1,2,1,2
5,experimental trial,1,12,folder/matchedM098.png,1,1.281414354,1,1,2,1
5,experimental trial,1,13,folder/matchedM100.png,1,1.041564271,1,3,2,3
5,experimental trial,1,14,folder/matchedh6.jpg,2,1.186438181,1,1,1,1
5,experimental trial,1,15,folder/matchedM100.png,1,10.00011252,-1,3,2,0
5,experimental trial,1,16,folder/matchedh3.jpg,2,3.833930118,1,4,1,4
5,experimental trial,1,17,folder/matchedM096.png,1,3.182133604,0,2,2,3
5,experimental trial,1,18,folder/matchedM072.png,1,1.520017454,1,2,1,2
5,experimental trial,1,19,folder/matchedh15.jpg,2,0.806894696,1,1,1,1
5,experimental trial,1,20,folder/matchedM098.png,1,1.243599952,1,3,2,3
5,experimental trial,1,21,folder/matchedM004.png,1,0.612025997,1,3,2,3
5,experimental trial,1,22,folder/matchedM019.png,1,3.094166178,1,1,1,1
5,experimental trial,1,23,folder/matchedM096.png,1,2.073768199,1,4,2,4
5,experimental trial,1,24,folder/matchedM096.png,1,1.224138802,1,2,1,2
5,experimental trial,1,25,folder/matchedM016.png,1,0.663489456,1,3,1,3
5,experimental trial,1,26,folder/matchedh1.jpg,2,1.203928646,1,3,2,3
5,experimental trial,1,27,folder/matchedh22.jpg,2,0.984626694,1,3,1,3
5,experimental trial,1,28,folder/matchedM100.png,1,0.973602227,1,2,2,2
5,experimental trial,1,29,folder/matchedM072.png,1,0.593500273,1,3,2,3
5,experimental trial,1,30,folder/matchedM094.png,1,3.722131832,1,3,2,3
5,experimental trial,1,31,folder/matchedM024.png,1,1.443132403,1,2,2,2
5,experimental trial,1,32,folder/matchedM024.png,1,1.872826097,1,1,1,1
5,experimental trial,1,33,folder/matchedM024.png,1,2.853733355,1,2,2,2
5,experimental trial,1,34,folder/matchedM098.png,1,1.245913443,1,2,2,2
5,experimental trial,1,35,folder/matchedM019.png,1,1.60608077,1,3,1,3
5,experimental trial,1,36,folder/matchedM098.png,1,3.180102006,1,4,1,4
5,experimental trial,1,37,folder/matchedM072.png,1,1.593773644,1,3,1,3
5,experimental trial,1,38,folder/matchedM100.png,1,2.831907004,1,3,2,3
5,experimental trial,1,39,folder/matchedM004.png,1,1.851268755,1,1,1,1
5,experimental trial,1,40,folder/matchedM020.png,1,1.4424461,1,4,1,4
5,experimental trial,1,41,folder/matchedM072.png,1,1.853127599,1,4,2,4
5,experimental trial,1,42,folder/matchedM020.png,1,1.52457253,1,2,2,2
5,experimental trial,1,43,folder/matchedM020.png,1,1.513624161,1,2,2,2
5,experimental trial,1,44,folder/matchedM094.png,1,1.728130186,1,1,2,1
5,experimental trial,1,45,folder/matchedh19.jpg,2,2.664878673,1,4,2,4
5,experimental trial,1,46,folder/matchedM016.png,1,2.266258253,1,3,2,3
5,experimental trial,1,47,folder/matchedM019.png,1,1.723343577,1,4,1,4
5,experimental trial,1,48,folder/matchedM096.png,1,1.293456305,1,4,2,4
5,experimental trial,1,49,folder/matchedM004.png,1,2.673704147,1,4,1,4
5,experimental trial,1,50,folder/matchedh21.jpg,2,1.354645397,1,2,1,2
5,experimental trial,2,51,folder/matchedM072.png,1,2.59695402,1,2,1,2
5,experimental trial,2,52,folder/matchedM019.png,1,3.797232019,1,3,2,3
5,experimental trial,2,53,folder/matchedM100.png,1,1.574811847,1,4,1,4
5,experimental trial,2,54,folder/matchedM094.png,1,1.172527326,1,2,2,2
5,experimental trial,2,55,folder/matchedM024.png,1,1.993756073,1,3,1,3
5,experimental trial,2,56,folder/matchedM019.png,1,2.751589684,1,3,1,3
5,experimental trial,2,57,folder/matchedM096.png,1,2.296276595,1,4,2,4
5,experimental trial,2,58,folder/matchedM072.png,1,2.232136497,1,3,2,3
5,experimental trial,2,59,folder/matchedM020.png,1,1.651936366,1,3,2,3
5,experimental trial,2,60,folder/matchedM016.png,1,1.35318204,1,3,2,3
5,experimental trial,2,61,folder/matchedM019.png,1,0.573374936,1,3,2,3
5,experimental trial,2,62,folder/matchedM020.png,1,1.523326509,1,3,1,3
5,experimental trial,2,63,folder/matchedM096.png,1,1.145927685,1,2,2,2
5,experimental trial,2,64,folder/matchedM100.png,1,1.749623798,1,2,1,2
5,experimental trial,2,65,folder/matchedM098.png,1,1.541843256,1,1,2,1
5,experimental trial,2,66,folder/matchedM016.png,1,2.321741502,1,4,1,4
5,experimental trial,2,67,folder/matchedh3.jpg,2,1.07979461,1,2,2,2
5,experimental trial,2,68,folder/matchedM024.png,1,1.051204228,1,1,1,1
5,experimental trial,2,69,folder/matchedM094.png,1,0.692010988,1,1,1,1
5,experimental trial,2,70,folder/matchedM094.png,1,1.502240149,1,3,1,3
5,experimental trial,2,71,folder/matchedh1.jpg,2,1.754996087,1,2,2,2
5,experimental trial,2,72,folder/matchedM020.png,1,3.792454106,1,3,2,3
5,experimental trial,2,73,folder/matchedM098.png,1,1.712375317,1,2,1,2
5,experimental trial,2,74,folder/matchedM016.png,1,1.491050921,1,4,2,4
5,experimental trial,2,75,folder/matchedh15.jpg,2,9.241024166,1,4,1,4
5,experimental trial,2,76,folder/matchedM072.png,1,2.085509051,1,2,2,2
5,experimental trial,2,77,folder/matchedM100.png,1,3.310933163,1,3,1,3
5,experimental trial,2,78,folder/matchedM024.png,1,4.440675615,1,3,2,3
5,experimental trial,2,79,folder/matchedM100.png,1,1.329553867,1,1,2,1
5,experimental trial,2,80,folder/matchedh10.jpg,2,3.114799865,1,4,1,4
5,experimental trial,2,81,folder/matchedM016.png,1,1.862137692,1,3,1,3
5,experimental trial,2,82,folder/matchedM004.png,1,0.690951063,1,3,1,3
5,experimental trial,2,83,folder/matchedh23.jpg,2,2.993214457,1,3,2,3
5,experimental trial,2,84,folder/matchedM094.png,1,1.283026459,1,1,2,1
5,experimental trial,2,85,folder/matchedh21.jpg,2,2.613980105,1,3,2,3
5,experimental trial,2,86,folder/matchedM096.png,1,2.814734416,1,3,1,3
5,experimental trial,2,87,folder/matchedh19.jpg,2,2.80672024,1,2,1,2
5,experimental trial,2,88,folder/matchedh22.jpg,2,1.303658172,1,2,1,2
5,experimental trial,2,89,folder/matchedM098.png,1,1.922308893,1,3,1,3
5,experimental trial,2,90,folder/matchedM004.png,1,1.501270607,1,1,2,1
5,experimental trial,2,91,folder/matchedM072.png,1,1.922898847,1,4,1,4
5,experimental trial,2,92,folder/matchedM019.png,1,1.491979478,1,4,2,4
5,experimental trial,2,93,folder/matchedh5.jpg,2,2.063741395,1,2,2,2
5,experimental trial,2,94,folder/matchedM096.png,1,1.222750767,1,2,1,2
5,experimental trial,2,95,folder/matchedM004.png,1,0.563399232,0,1,2,2
5,experimental trial,2,96,folder/matchedM020.png,1,1.161490506,1,2,1,2
5,experimental trial,2,97,folder/matchedh6.jpg,2,0.772359947,1,3,1,3
5,experimental trial,2,98,folder/matchedM004.png,1,1.414335083,1,3,1,3
5,experimental trial,2,99,folder/matchedM098.png,1,1.485248391,1,3,1,3
5,experimental trial,2,100,folder/matchedM024.png,1,1.440695477,1,2,1,2
5,experimental trial,3,101,folder/matchedh19.jpg,2,1.416867121,1,2,2,2
5,experimental trial,3,102,folder/matchedM098.png,1,1.969032178,1,3,1,3
5,experimental trial,3,103,folder/matchedM024.png,1,1.182907736,1,3,1,3
5,experimental trial,3,104,folder/matchedM072.png,1,1.361434202,1,1,2,1
5,experimental trial,3,105,folder/matchedM004.png,1,1.10459435,1,3,1,3
5,experimental trial,3,106,folder/matchedM094.png,1,0.869094442,1,3,1,3
5,experimental trial,3,107,folder/matchedh23.jpg,2,3.269781375,1,2,2,2
5,experimental trial,3,108,folder/matchedh5.jpg,2,1.762654585,1,1,1,1
5,experimental trial,3,109,folder/matchedM024.png,1,1.462060485,1,4,2,4
5,experimental trial,3,110,folder/matchedM019.png,1,1.480473233,1,4,1,4
5,experimental trial,3,111,folder/matchedh21.jpg,2,0.693625702,1,1,1,1
5,experimental trial,3,112,folder/matchedM098.png,1,0.604789158,1,4,1,4
5,experimental trial,3,113,folder/matchedM004.png,1,1.14145924,1,4,2,4
5,experimental trial,3,114,folder/matchedM098.png,1,0.643042448,1,4,2,4
5,experimental trial,3,115,folder/matchedM100.png,1,1.382282801,1,2,1,2
5,experimental trial,3,116,folder/matchedh10.jpg,2,0.559469452,1,3,1,3
5,experimental trial,3,117,folder/matchedh6.jpg,2,1.131619769,1,1,2,1
5,experimental trial,3,118,folder/matchedh1.jpg,2,1.078681452,1,3,1,3
5,experimental trial,3,119,folder/matchedM094.png,1,0.983890955,1,1,2,1
5,experimental trial,3,120,folder/matchedM100.png,1,0.754010131,1,2,2,2
5,experimental trial,3,121,folder/matchedM094.png,1,1.735526772,1,4,2,4
5,experimental trial,3,122,folder/matchedM096.png,1,2.003530484,1,2,2,2
5,experimental trial,3,123,folder/matchedM020.png,1,0.991038967,1,3,1,3
5,experimental trial,3,124,folder/matchedM096.png,1,2.352863637,1,1,2,1
5,experimental trial,3,125,folder/matchedM072.png,1,0.554199885,1,1,2,1
5,experimental trial,3,126,folder/matchedM020.png,1,0.551623573,1,1,2,1
5,experimental trial,3,127,folder/matchedh22.jpg,2,0.802473055,1,3,1,3
5,experimental trial,3,128,folder/matchedh15.jpg,2,0.584242583,1,2,1,2
5,experimental trial,3,129,folder/matchedM019.png,1,0.909505972,1,3,1,3
5,experimental trial,3,130,folder/matchedM072.png,1,1.093814307,1,3,1,3
5,experimental trial,3,131,folder/matchedM096.png,1,0.632799228,1,2,1,2
5,experimental trial,3,132,folder/matchedM024.png,1,2.829618117,1,4,1,4
5,experimental trial,3,133,folder/matchedM098.png,1,1.052928607,1,4,2,4
5,experimental trial,3,134,folder/matchedM019.png,1,1.16434379,1,2,2,2
5,experimental trial,3,135,folder/matchedM020.png,1,4.770914754,1,3,2,3
5,experimental trial,3,136,folder/matchedM016.png,1,1.641643312,1,4,2,4
5,experimental trial,3,137,folder/matchedM020.png,1,3.630052078,1,3,1,3
5,experimental trial,3,138,folder/matchedM016.png,1,3.09944287,1,4,1,4
5,experimental trial,3,139,folder/matchedM016.png,1,3.053667671,1,1,1,1
5,experimental trial,3,140,folder/matchedM019.png,1,1.833197539,1,1,2,1
5,experimental trial,3,141,folder/matchedM100.png,1,1.645238042,1,3,1,3
5,experimental trial,3,142,folder/matchedM100.png,1,1.151084411,1,1,1,1
5,experimental trial,3,143,folder/matchedh3.jpg,2,2.801905989,1,2,2,2
5,experimental trial,3,144,folder/matchedM004.png,1,2.070837085,1,4,1,4
5,experimental trial,3,145,folder/matchedM004.png,1,1.692007587,1,3,2,3
5,experimental trial,3,146,folder/matchedM096.png,1,1.47183769,1,3,2,3
5,experimental trial,3,147,folder/matchedM016.png,1,1.491688961,1,2,1,2
5,experimental trial,3,148,folder/matchedM072.png,1,1.678094375,1,4,1,4
5,experimental trial,3,149,folder/matchedM094.png,1,0.689521514,1,4,1,4
5,experimental trial,3,150,folder/matchedM024.png,1,1.869352584,1,1,1,1
6,conscious trial,1,1,folder/matchedh24.jpg,2,0.719779993,1,2,2,1
6,conscious trial,1,2,folder/matchedh18.jpg,2,0.590357946,1,4,2,1
6,conscious trial,1,3,folder/matchedh14.jpg,2,0.442083327,1,1,2,1
6,conscious trial,1,4,folder/matchedM102.png,1,0.436006355,1,2,1,2
6,conscious trial,1,5,folder/matchedh9.jpg,2,0.56603933,1,1,2,1
6,conscious trial,1,6,folder/matchedM103.png,1,0.384401086,1,3,1,2
6,conscious trial,1,7,folder/matchedM017.png,1,0.543576051,1,4,1,2
6,conscious trial,1,8,folder/matchedh14.jpg,2,0.632357483,1,4,2,1
6,conscious trial,1,9,folder/matchedh14.jpg,2,0.404327466,1,1,2,1
6,conscious trial,1,10,folder/matchedh16.jpg,2,0.669757005,1,3,2,1
6,conscious trial,1,11,folder/matchedh4.jpg,2,0.444290935,1,1,2,1
6,conscious trial,1,12,folder/matchedh7.jpg,2,0.596652536,1,3,2,1
6,conscious trial,1,13,folder/matchedh18.jpg,2,0.524376568,1,3,2,1
6,conscious trial,1,14,folder/matchedh8.jpg,2,0.419524552,1,1,2,1
6,conscious trial,1,15,folder/matchedh4.jpg,2,0.404673674,1,4,2,1
6,conscious trial,1,16,folder/matchedh16.jpg,2,0.373337022,1,1,2,1
6,conscious trial,1,17,folder/matchedM001.png,1,0.494064831,1,2,1,2
6,conscious trial,1,18,folder/matchedh24.jpg,2,0.473933892,1,1,2,1
6,conscious trial,1,19,folder/matchedM087.png,1,0.365245456,1,3,1,2
6,conscious trial,1,20,folder/matchedh7.jpg,2,0.384375616,1,4,2,1
6,conscious trial,1,21,folder/matchedh11.jpg,2,0.472647766,1,3,2,1
6,conscious trial,1,22,folder/matchedM021.png,1,0.382819548,1,1,1,2
6,conscious trial,1,23,folder/matchedh24.jpg,2,0.563900289,1,2,2,1
6,conscious trial,1,24,folder/matchedh20.jpg,2,0.394793075,1,1,2,1
6,conscious trial,1,25,folder/matchedh24.jpg,2,0.543009097,1,3,2,1
6,conscious trial,1,26,folder/matchedh14.jpg,2,0.363384939,1,3,2,1
6,conscious trial,1,27,folder/matchedh9.jpg,2,0.38270462,1,4,2,1
6,conscious trial,1,28,folder/matchedh8.jpg,2,0.732171073,1,3,2,1
6,conscious trial,1,29,folder/matchedh11.jpg,2,0.533902019,1,2,2,1
6,conscious trial,1,30,folder/matchedh8.jpg,2,0.394161159,1,4,2,1
6,conscious trial,1,31,folder/matchedh7.jpg,2,0.312508273,1,1,2,1
6,conscious trial,1,32,folder/matchedh16.jpg,2,0.303664198,1,4,2,1
6,conscious trial,1,33,folder/matchedh4.jpg,2,0.493213934,1,2,2,1
6,conscious trial,1,34,folder/matchedh9.jpg,2,0.372101388,1,4,2,1
6,conscious trial,1,35,folder/matchedh9.jpg,2,0.292943248,1,4,2,1
6,conscious trial,1,36,folder/matchedM067.png,1,0.253360667,0,4,1,1
6,conscious trial,1,37,folder/matchedh4.jpg,2,0.714467764,1,1,2,1
6,conscious trial,1,38,folder/matchedh18.jpg,2,0.37494412,1,4,2,1
6,conscious trial,1,39,folder/matchedh18.jpg,2,0.351732233,1,4,2,1
6,conscious trial,1,40,folder/matchedM003.png,1,0.559382246,1,1,1,2
6,conscious trial,1,41,folder/matchedh16.jpg,2,0.542760876,1,1,2,1
6,conscious trial,1,42,folder/matchedh20.jpg,2,0.514625168,1,3,2,1
6,conscious trial,1,43,folder/matchedh7.jpg,2,0.580013584,1,1,2,1
6,conscious trial,1,44,folder/matchedh20.jpg,2,0.523831963,1,3,2,1
6,conscious trial,1,45,folder/matchedh8.jpg,2,0.44253291,1,1,2,1
6,conscious trial,1,46,folder/matchedh20.jpg,2,0.612770424,1,2,2,1
6,conscious trial,1,47,folder/matchedh11.jpg,2,0.516703898,1,4,2,1
6,conscious trial,1,48,folder/matchedh11.jpg,2,0.413110967,1,2,2,1
6,conscious trial,1,49,folder/matchedM006.png,1,0.478161929,1,1,1,2
6,conscious trial,1,50,folder/matchedM023.png,1,0.442601165,1,2,1,2
6,conscious trial,2,51,folder/matchedh20.jpg,2,1.007889271,1,1,2,1
6,conscious trial,2,52,folder/matchedh9.jpg,2,0.784006442,1,1,2,1
6,conscious trial,2,53,folder/matchedh8.jpg,2,1.122739246,1,2,2,1
6,conscious trial,2,54,folder/matchedh8.jpg,2,1.245662411,1,3,2,1
6,conscious trial,2,55,folder/matchedh24.jpg,2,0.703648161,1,2,2,1
6,conscious trial,2,56,folder/matchedM017.png,1,0.503087653,1,4,1,2
6,conscious trial,2,57,folder/matchedh20.jpg,2,0.652665323,1,3,2,1
6,conscious trial,2,58,folder/matchedh18.jpg,2,0.551891356,1,3,2,1
6,conscious trial,2,59,folder/matchedh9.jpg,2,2.102668549,1,4,2,1
6,conscious trial,2,60,folder/matchedh16.jpg,2,0.43262791,1,1,2,1
6,conscious trial,2,61,folder/matchedh8.jpg,2,0.433008418,1,4,2,1
6,conscious trial,2,62,folder/matchedh14.jpg,2,0.41527971,1,3,2,1
6,conscious trial,2,63,folder/matchedM023.png,1,0.557348644,1,4,1,2
6,conscious trial,2,64,folder/matchedM006.png,1,0.523978658,1,2,1,2
6,conscious trial,2,65,folder/matchedh8.jpg,2,0.402947028,0,2,2,2
6,conscious trial,2,66,folder/matchedh16.jpg,2,0.794976465,1,2,2,1
6,conscious trial,2,67,folder/matchedh20.jpg,2,0.560178274,1,3,2,1
6,conscious trial,2,68,folder/matchedM067.png,1,0.544016747,1,4,1,2
6,conscious trial,2,69,folder/matchedh11.jpg,2,0.728664038,1,3,2,1
6,conscious trial,2,70,folder/matchedh14.jpg,2,0.632659056,1,4,2,1
6,conscious trial,2,71,folder/matchedh24.jpg,2,0.454443043,1,4,2,1
6,conscious trial,2,72,folder/matchedh16.jpg,2,0.555133765,1,3,2,1
6,conscious trial,2,73,folder/matchedh20.jpg,2,0.554494774,1,2,2,1
6,conscious trial,2,74,folder/matchedh4.jpg,2,1.251161443,1,2,2,1
6,conscious trial,2,75,folder/matchedM087.png,1,0.602562336,1,2,1,2
6,conscious trial,2,76,folder/matchedh11.jpg,2,0.63134355,1,2,2,1
6,conscious trial,2,77,folder/matchedM003.png,1,0.490736253,1,3,1,2
6,conscious trial,2,78,folder/matchedM102.png,1,0.57777843,1,1,1,2
6,conscious trial,2,79,folder/matchedh18.jpg,2,0.529253936,1,4,2,1
6,conscious trial,2,80,folder/matchedh24.jpg,2,0.642446234,1,2,2,1
6,conscious trial,2,81,folder/matchedh16.jpg,2,0.430713277,1,2,2,1
6,conscious trial,2,82,folder/matchedM103.png,1,0.579884449,1,4,1,2
6,conscious trial,2,83,folder/matchedh18.jpg,2,0.590329066,1,2,2,1
6,conscious trial,2,84,folder/matchedh9.jpg,2,0.452757055,1,4,2,1
6,conscious trial,2,85,folder/matchedh11.jpg,2,0.57903735,1,2,2,1
6,conscious trial,2,86,folder/matchedh7.jpg,2,0.61191334,1,3,2,1
6,conscious trial,2,87,folder/matchedh14.jpg,2,0.331831661,1,4,2,1
6,conscious trial,2,88,folder/matchedh7.jpg,2,0.351322965,1,4,2,1
6,conscious trial,2,89,folder/matchedh24.jpg,2,0.370944389,1,1,2,1
6,conscious trial,2,90,folder/matchedh4.jpg,2,0.522089442,1,2,2,1
6,conscious trial,2,91,folder/matchedh11.jpg,2,0.423382829,1,2,2,1
6,conscious trial,2,92,folder/matchedM001.png,1,0.433607136,1,3,1,2
6,conscious trial,2,93,folder/matchedh7.jpg,2,0.401021253,1,1,2,1
6,conscious trial,2,94,folder/matchedh7.jpg,2,0.596645645,1,2,2,1
6,conscious trial,2,95,folder/matchedM021.png,1,0.560600384,1,1,1,2
6,conscious trial,2,96,folder/matchedh14.jpg,2,0.542013363,1,3,2,1
6,conscious trial,2,97,folder/matchedh4.jpg,2,0.522157814,1,3,2,1
6,conscious trial,2,98,folder/matchedh4.jpg,2,0.563141031,1,1,2,1
6,conscious trial,2,99,folder/matchedh18.jpg,2,0.350628632,1,4,2,1
6,conscious trial,2,100,folder/matchedh9.jpg,2,0.392988487,1,2,2,1
6,experimental trial,1,1,folder/matchedh3.jpg,2,3.541620752,1,2,1,2
6,experimental trial,1,2,folder/matchedh19.jpg,2,10.00288068,-1,1,2,0
6,experimental trial,1,3,folder/matchedh5.jpg,2,2.241367495,0,3,1,2
6,experimental trial,1,4,folder/matchedM020.png,1,6.939227385,1,4,2,4
6,experimental trial,1,5,folder/matchedh15.jpg,2,3.482506803,1,3,1,3
6,experimental trial,1,6,folder/matchedh6.jpg,2,4.747804386,1,3,2,3
6,experimental trial,1,7,folder/matchedh23.jpg,2,4.591189109,1,3,2,3
6,experimental trial,1,8,folder/matchedh3.jpg,2,3.272195674,1,4,1,4
6,experimental trial,1,9,folder/matchedM016.png,1,1.542015405,1,1,1,1
6,experimental trial,1,10,folder/matchedh10.jpg,2,3.51683817,1,3,2,3
6,experimental trial,1,11,folder/matchedh22.jpg,2,6.490889731,1,4,2,4
6,experimental trial,1,12,folder/matchedh22.jpg,2,1.524450031,1,4,1,4
6,experimental trial,1,13,folder/matchedh1.jpg,2,2.251208496,1,2,2,2
6,experimental trial,1,14,folder/matchedh19.jpg,2,4.128413697,1,2,1,2
6,experimental trial,1,15,folder/matchedM094.png,1,9.488510115,1,2,1,2
6,experimental trial,1,16,folder/matchedh1.jpg,2,3.284987752,1,3,2,3
6,experimental trial,1,17,folder/matchedh21.jpg,2,1.942002451,1,4,1,4
6,experimental trial,1,18,folder/matchedh22.jpg,2,1.673947946,1,3,2,3
6,experimental trial,1,19,folder/matchedM098.png,1,2.992313994,1,4,2,4
6,experimental trial,1,20,folder/matchedh10.jpg,2,4.815481739,1,1,2,1
6,experimental trial,1,21,folder/matchedh10.jpg,2,3.732828353,1,4,2,4
6,experimental trial,1,22,folder/matchedh6.jpg,2,2.271848638,1,2,2,2
6,experimental trial,1,23,folder/matchedh23.jpg,2,3.142299657,1,1,2,1
6,experimental trial,1,24,folder/matchedh19.jpg,2,2.122552771,1,2,2,2
6,experimental trial,1,25,folder/matchedM096.png,1,2.391909271,1,2,1,2
6,experimental trial,1,26,folder/matchedM004.png,1,2.068797652,1,1,2,1
6,experimental trial,1,27,folder/matchedh21.jpg,2,2.493320195,1,2,1,2
6,experimental trial,1,28,folder/matchedh23.jpg,2,1.892117508,1,1,2,1
6,experimental trial,1,29,folder/matchedM024.png,1,1.491669619,1,2,1,2
6,experimental trial,1,30,folder/matchedh5.jpg,2,3.831512165,1,1,2,1
6,experimental trial,1,31,folder/matchedh3.jpg,2,1.75563124,1,4,1,4
6,experimental trial,1,32,folder/matchedh5.jpg,2,2.583708285,1,3,2,3
6,experimental trial,1,33,folder/matchedh1.jpg,2,2.03194789,1,1,2,1
6,experimental trial,1,34,folder/matchedh21.jpg,2,1.243524167,1,4,1,4
6,experimental trial,1,35,folder/matchedM100.png,1,3.50224762,0,3,1,2
6,experimental trial,1,36,folder/matchedh1.jpg,2,1.492082406,1,4,1,4
6,experimental trial,1,37,folder/matchedM072.png,1,2.822732426,1,1,2,1
6,experimental trial,1,38,folder/matchedh15.jpg,2,2.852464589,1,3,1,3
6,experimental trial,1,39,folder/matchedh6.jpg,2,4.152918848,1,4,2,4
6,experimental trial,1,40,folder/matchedh15.jpg,2,1.171751658,1,1,1,1
6,experimental trial,1,41,folder/matchedh6.jpg,2,2.055439221,1,1,1,1
6,experimental trial,1,42,folder/matchedh21.jpg,2,1.733066796,1,3,2,3
6,experimental trial,1,43,folder/matchedh5.jpg,2,1.591756797,1,1,2,1
6,experimental trial,1,44,folder/matchedh22.jpg,2,1.293522316,1,3,2,3
6,experimental trial,1,45,folder/matchedM019.png,1,2.123572448,1,4,2,4
6,experimental trial,1,46,folder/matchedh19.jpg,2,3.972695763,1,3,2,3
6,experimental trial,1,47,folder/matchedh23.jpg,2,5.52138882,1,3,1,3
6,experimental trial,1,48,folder/matchedh15.jpg,2,4.783880522,1,3,2,3
6,experimental trial,1,49,folder/matchedh3.jpg,2,1.170263684,1,2,1,2
6,experimental trial,1,50,folder/matchedh10.jpg,2,2.272081749,1,3,1,3
6,experimental trial,2,51,folder/matchedh5.jpg,2,1.096697707,1,1,1,1
6,experimental trial,2,52,folder/matchedh5.jpg,2,1.455343413,1,2,1,2
6,experimental trial,2,53,folder/matchedh21.jpg,2,1.322196355,1,2,2,2
6,experimental trial,2,54,folder/matchedh22.jpg,2,1.411372905,1,1,1,1
6,experimental trial,2,55,folder/matchedM072.png,1,1.34247365,1,2,2,2
6,experimental trial,2,56,folder/matchedh3.jpg,2,1.791931732,1,1,2,1
6,experimental trial,2,57,folder/matchedM100.png,1,1.162091096,1,2,2,2
6,experimental trial,2,58,folder/matchedh15.jpg,2,1.947618208,1,1,2,1
6,experimental trial,2,59,folder/matchedh10.jpg,2,4.315607563,1,2,2,2
6,experimental trial,2,60,folder/matchedM096.png,1,1.707591084,1,1,1,1
6,experimental trial,2,61,folder/matchedM020.png,1,2.260936588,1,3,1,3
6,experimental trial,2,62,folder/matchedh10.jpg,2,4.190536083,1,3,1,3
6,experimental trial,2,63,folder/matchedh23.jpg,2,5.255313774,1,4,2,4
6,experimental trial,2,64,folder/matchedh10.jpg,2,1.432130854,1,2,1,2
6,experimental trial,2,65,folder/matchedh5.jpg,2,1.649702818,1,1,1,1
6,experimental trial,2,66,folder/matchedM098.png,1,1.702109011,1,3,2,3
6,experimental trial,2,67,folder/matchedh19.jpg,2,2.121083349,1,1,1,1
6,experimental trial,2,68,folder/matchedh22.jpg,2,5.893872427,1,4,2,4
6,experimental trial,2,69,folder/matchedh21.jpg,2,1.10807399,1,4,2,4
6,experimental trial,2,70,folder/matchedh3.jpg,2,1.631099602,1,3,2,3
6,experimental trial,2,71,folder/matchedh3.jpg,2,1.892648966,1,4,1,4
6,experimental trial,2,72,folder/matchedh15.jpg,2,2.09176892,1,3,2,3
6,experimental trial,2,73,folder/matchedh10.jpg,2,2.388022539,1,2,1,2
6,experimental trial,2,74,folder/matchedM004.png,1,2.271345254,1,3,1,3
6,experimental trial,2,75,folder/matchedh3.jpg,2,1.47129966,1,4,1,4
6,experimental trial,2,76,folder/matchedM094.png,1,2.128451868,1,2,1,2
6,experimental trial,2,77,folder/matchedM019.png,1,5.732495857,1,4,2,4
6,experimental trial,2,78,folder/matchedh6.jpg,2,1.832215557,1,1,1,1
6,experimental trial,2,79,folder/matchedh5.jpg,2,1.239832889,1,1,1,1
6,experimental trial,2,80,folder/matchedh21.jpg,2,0.892200762,1,2,2,2
6,experimental trial,2,81,folder/matchedh19.jpg,2,2.230014873,1,2,2,2
6,experimental trial,2,82,folder/matchedh1.jpg,2,2.014223223,1,4,2,4
6,experimental trial,2,83,folder/matchedh6.jpg,2,1.709679596,1,3,1,3
6,experimental trial,2,84,folder/matchedh22.jpg,2,1.513136108,1,2,2,2
6,experimental trial,2,85,folder/matchedh23.jpg,2,2.682730711,1,4,2,4
6,experimental trial,2,86,folder/matchedh1.jpg,2,1.682494159,1,1,1,1
6,experimental trial,2,87,folder/matchedh15.jpg,2,2.543018113,1,2,2,2
6,experimental trial,2,88,folder/matchedh6.jpg,2,2.258308344,1,1,2,1
6,experimental trial,2,89,folder/matchedh23.jpg,2,2.683575622,1,4,2,4
6,experimental trial,2,90,folder/matchedM016.png,1,1.082067455,1,2,1,2
6,experimental trial,2,91,folder/matchedh15.jpg,2,1.424244704,1,3,2,3
6,experimental trial,2,92,folder/matchedh23.jpg,2,2.871832327,1,2,1,2
6,experimental trial,2,93,folder/matchedh6.jpg,2,1.722814968,1,4,1,4
6,experimental trial,2,94,folder/matchedM024.png,1,1.395598401,1,1,1,1
6,experimental trial,2,95,folder/matchedh1.jpg,2,1.653549971,1,4,2,4
6,experimental trial,2,96,folder/matchedh22.jpg,2,5.001306074,1,1,2,1
6,experimental trial,2,97,folder/matchedh19.jpg,2,8.819735047,1,4,2,4
6,experimental trial,2,98,folder/matchedh21.jpg,2,1.723427339,1,2,1,2
6,experimental trial,2,99,folder/matchedh19.jpg,2,1.371980529,1,1,1,1
6,experimental trial,2,100,folder/matchedh1.jpg,2,3.222052526,1,1,2,1
6,experimental trial,3,101,folder/matchedh6.jpg,2,2.006782912,1,1,1,1
6,experimental trial,3,102,folder/matchedh5.jpg,2,0.871447109,1,1,1,1
6,experimental trial,3,103,folder/matchedh10.jpg,2,2.281529493,1,2,2,2
6,experimental trial,3,104,folder/matchedM096.png,1,2.032787549,1,2,2,2
6,experimental trial,3,105,folder/matchedh6.jpg,2,1.602519795,1,3,1,3
6,experimental trial,3,106,folder/matchedh10.jpg,2,1.150521288,1,4,1,4
6,experimental trial,3,107,folder/matchedM098.png,1,5.009908847,0,4,1,2
6,experimental trial,3,108,folder/matchedM019.png,1,2.980099675,1,3,1,3
6,experimental trial,3,109,folder/matchedh23.jpg,2,2.278194792,0,4,1,1
6,experimental trial,3,110,folder/matchedh1.jpg,2,2.482141632,1,3,1,3
6,experimental trial,3,111,folder/matchedh21.jpg,2,1.09188652,1,2,1,2
6,experimental trial,3,112,folder/matchedh23.jpg,2,2.001667483,1,4,2,4
6,experimental trial,3,113,folder/matchedh15.jpg,2,4.961139839,1,3,2,3
6,experimental trial,3,114,folder/matchedh15.jpg,2,1.412703948,1,1,1,1
6,experimental trial,3,115,folder/matchedh10.jpg,2,2.478971192,1,4,2,4
6,experimental trial,3,116,folder/matchedh21.jpg,2,1.173087498,1,1,1,1
6,experimental trial,3,117,folder/matchedh1.jpg,2,2.690609827,1,3,2,3
6,experimental trial,3,118,folder/matchedh22.jpg,2,1.210582707,1,4,1,4
6,experimental trial,3,119,folder/matchedM100.png,1,1.427485515,1,4,2,4
6,experimental trial,3,120,folder/matchedh19.jpg,2,1.724052737,1,4,2,4
6,experimental trial,3,121,folder/matchedh19.jpg,2,1.848615514,1,2,1,2
6,experimental trial,3,122,folder/matchedh15.jpg,2,2.181505172,1,2,2,2
6,experimental trial,3,123,folder/matchedh6.jpg,2,2.672271582,1,1,2,1
6,experimental trial,3,124,folder/matchedh10.jpg,2,3.231959139,0,2,1,1
6,experimental trial,3,125,folder/matchedh22.jpg,2,1.959028615,1,1,2,1
6,experimental trial,3,126,folder/matchedh5.jpg,2,1.223491972,1,4,1,4
6,experimental trial,3,127,folder/matchedh3.jpg,2,1.467706671,1,2,2,2
6,experimental trial,3,128,folder/matchedh5.jpg,2,1.911111108,1,2,1,2
6,experimental trial,3,129,folder/matchedh1.jpg,2,2.572580499,1,3,2,3
6,experimental trial,3,130,folder/matchedh19.jpg,2,4.093408105,1,4,2,4
6,experimental trial,3,131,folder/matchedh3.jpg,2,1.33497305,1,1,2,1
6,experimental trial,3,132,folder/matchedh22.jpg,2,2.162071405,1,4,2,4
6,experimental trial,3,133,folder/matchedh21.jpg,2,2.12321648,1,4,2,4
6,experimental trial,3,134,folder/matchedh3.jpg,2,1.213028979,1,4,2,4
6,experimental trial,3,135,folder/matchedM020.png,1,2.231574204,1,3,1,3
6,experimental trial,3,136,folder/matchedh22.jpg,2,2.012964394,1,1,2,1
6,experimental trial,3,137,folder/matchedh3.jpg,2,2.65659774,1,3,2,3
6,experimental trial,3,138,folder/matchedM072.png,1,1.551358654,1,2,1,2
6,experimental trial,3,139,folder/matchedM024.png,1,1.152700347,1,4,2,4
6,experimental trial,3,140,folder/matchedh15.jpg,2,2.156655057,1,2,1,2
6,experimental trial,3,141,folder/matchedh5.jpg,2,2.381758881,0,1,2,4
6,experimental trial,3,142,folder/matchedh23.jpg,2,2.480366438,1,2,1,2
6,experimental trial,3,143,folder/matchedh6.jpg,2,1.414260764,1,4,1,4
6,experimental trial,3,144,folder/matchedh21.jpg,2,1.001398731,1,1,1,1
6,experimental trial,3,145,folder/matchedh23.jpg,2,1.78093439,1,1,1,1
6,experimental trial,3,146,folder/matchedh19.jpg,2,2.462042821,1,4,1,4
6,experimental trial,3,147,folder/matchedM016.png,1,3.113502773,1,2,1,2
6,experimental trial,3,148,folder/matchedM094.png,1,3.780074259,1,1,2,1
6,experimental trial,3,149,folder/matchedh1.jpg,2,4.394841515,1,3,2,3
6,experimental trial,3,150,folder/matchedM004.png,1,2.536935138,1,2,2,2
7,conscious trial,1,1,folder/matchedM006.png,1,0.889371944,1,1,1,2
7,conscious trial,1,2,folder/matchedM067.png,1,0.535416286,1,3,1,2
7,conscious trial,1,3,folder/matchedM102.png,1,0.543127761,1,4,1,2
7,conscious trial,1,4,folder/matchedM103.png,1,0.493000887,1,3,1,2
7,conscious trial,1,5,folder/matchedM067.png,1,0.513054699,1,4,1,2
7,conscious trial,1,6,folder/matchedM017.png,1,0.541639452,1,4,1,2
7,conscious trial,1,7,folder/matchedh16.jpg,2,0.641915479,1,3,2,1
7,conscious trial,1,8,folder/matchedM103.png,1,0.872678781,0,4,1,1
7,conscious trial,1,9,folder/matchedh24.jpg,2,1.011624455,1,3,2,1
7,conscious trial,1,10,folder/matchedM003.png,1,0.642355054,1,2,1,2
7,conscious trial,1,11,folder/matchedM003.png,1,0.622780341,1,4,1,2
7,conscious trial,1,12,folder/matchedh7.jpg,2,0.594859421,1,3,2,1
7,conscious trial,1,13,folder/matchedM023.png,1,1.60193889,1,2,1,2
7,conscious trial,1,14,folder/matchedM067.png,1,0.542373225,1,1,1,2
7,conscious trial,1,15,folder/matchedM001.png,1,0.410886501,1,3,1,2
7,conscious trial,1,16,folder/matchedM087.png,1,0.413172462,1,2,1,2
7,conscious trial,1,17,folder/matchedM006.png,1,0.45195126,1,3,1,2
7,conscious trial,1,18,folder/matchedM021.png,1,0.473270994,1,2,1,2
7,conscious trial,1,19,folder/matchedM003.png,1,0.671725584,1,4,1,2
7,conscious trial,1,20,folder/matchedM001.png,1,0.451972218,1,2,1,2
7,conscious trial,1,21,folder/matchedM023.png,1,0.742375,1,1,1,2
7,conscious trial,1,22,folder/matchedh4.jpg,2,0.516499196,1,4,2,1
7,conscious trial,1,23,folder/matchedM021.png,1,0.593803379,1,1,1,2
7,conscious trial,1,24,folder/matchedM017.png,1,0.410139183,1,1,1,2
7,conscious trial,1,25,folder/matchedM102.png,1,0.452305735,1,2,1,2
7,conscious trial,1,26,folder/matchedM067.png,1,0.418335264,1,3,1,2
7,conscious trial,1,27,folder/matchedM021.png,1,0.483033188,1,4,1,2
7,conscious trial,1,28,folder/matchedM087.png,1,0.485482595,1,1,1,2
7,conscious trial,1,29,folder/matchedM017.png,1,0.531889522,1,4,1,2
7,conscious trial,1,30,folder/matchedM103.png,1,0.379670236,1,2,1,2
7,conscious trial,1,31,folder/matchedh18.jpg,2,0.511782955,1,3,2,1
7,conscious trial,1,32,folder/matchedh20.jpg,2,0.403456186,1,4,2,1
7,conscious trial,1,33,folder/matchedh11.jpg,2,0.502076679,1,1,2,1
7,conscious trial,1,34,folder/matchedM017.png,1,0.441781216,1,3,1,2
7,conscious trial,1,35,folder/matchedM023.png,1,0.641226732,1,3,1,2
7,conscious trial,1,36,folder/matchedh14.jpg,2,0.484061981,1,2,2,1
7,conscious trial,1,37,folder/matchedM001.png,1,0.580292281,1,4,1,2
7,conscious trial,1,38,folder/matchedM103.png,1,0.449353918,1,3,1,2
7,conscious trial,1,39,folder/matchedM006.png,1,0.591085632,1,4,1,2
7,conscious trial,1,40,folder/matchedh8.jpg,2,0.485715518,1,2,2,1
7,conscious trial,1,41,folder/matchedM006.png,1,0.551948683,1,2,1,2
7,conscious trial,1,42,folder/matchedM102.png,1,0.418919173,1,2,1,2
7,conscious trial,1,43,folder/matchedh9.jpg,2,0.461119315,1,1,2,1
7,conscious trial,1,44,folder/matchedM102.png,1,0.465098594,1,3,1,2
7,conscious trial,1,45,folder/matchedM003.png,1,0.541741752,1,4,1,2
7,conscious trial,1,46,folder/matchedM001.png,1,0.514569383,1,2,1,2
7,conscious trial,1,47,folder/matchedM087.png,1,0.511982909,1,3,1,2
7,conscious trial,1,48,folder/matchedM023.png,1,0.52606612,1,4,1,2
7,conscious trial,1,49,folder/matchedM087.png,1,0.520652561,1,4,1,2
7,conscious trial,1,50,folder/matchedM021.png,1,1.005828948,1,2,1,2
7,conscious trial,2,51,folder/matchedh11.jpg,2,0.866414785,1,1,2,1
7,conscious trial,2,52,folder/matchedM021.png,1,0.59105688,1,4,1,2
7,conscious trial,2,53,folder/matchedM103.png,1,0.50700787,1,3,1,2
7,conscious trial,2,54,folder/matchedM001.png,1,0.465410047,1,3,1,2
7,conscious trial,2,55,folder/matchedh18.jpg,2,0.481484688,1,2,2,1
7,conscious trial,2,56,folder/matchedM023.png,1,0.581324112,1,4,1,2
7,conscious trial,2,57,folder/matchedM003.png,1,0.565138506,1,4,1,2
7,conscious trial,2,58,folder/matchedM102.png,1,0.608276396,1,4,1,2
7,conscious trial,2,59,folder/matchedM023.png,1,0.66969314,1,4,1,2
7,conscious trial,2,60,folder/matchedM001.png,1,0.409839964,1,3,1,2
7,conscious trial,2,61,folder/matchedM087.png,1,0.391532373,1,3,1,2
7,conscious trial,2,62,folder/matchedM017.png,1,0.38589788,1,3,1,2
7,conscious trial,2,63,folder/matchedM001.png,1,0.712329557,1,4,1,2
7,conscious trial,2,64,folder/matchedM087.png,1,0.681048661,1,1,1,2
7,conscious trial,2,65,folder/matchedh24.jpg,2,0.743276377,1,3,2,1
7,conscious trial,2,66,folder/matchedM021.png,1,0.631296555,1,4,1,2
7,conscious trial,2,67,folder/matchedM023.png,1,0.488636542,1,2,1,2
7,conscious trial,2,68,folder/matchedM003.png,1,0.471737667,1,3,1,2
7,conscious trial,2,69,folder/matchedM102.png,1,0.381385036,1,3,1,2
7,conscious trial,2,70,folder/matchedM003.png,1,0.411428731,0,1,1,1
7,conscious trial,2,71,folder/matchedh9.jpg,2,0.921310162,1,3,2,1
7,conscious trial,2,72,folder/matchedh4.jpg,2,0.531904097,1,4,2,1
7,conscious trial,2,73,folder/matchedM102.png,1,0.781029122,1,3,1,2
7,conscious trial,2,74,folder/matchedM003.png,1,1.200202507,1,3,1,2
7,conscious trial,2,75,folder/matchedh7.jpg,2,0.559952193,1,1,2,1
7,conscious trial,2,76,folder/matchedh8.jpg,2,0.480294794,1,4,2,1
7,conscious trial,2,77,folder/matchedM103.png,1,0.452017075,1,2,1,2
7,conscious trial,2,78,folder/matchedM103.png,1,0.700144298,1,4,1,2
7,conscious trial,2,79,folder/matchedM021.png,1,0.634681643,1,4,1,2
7,conscious trial,2,80,folder/matchedM067.png,1,0.551087558,1,1,1,2
7,conscious trial,2,81,folder/matchedM067.png,1,0.692169814,1,2,1,2
7,conscious trial,2,82,folder/matchedM067.png,1,0.463482253,1,2,1,2
7,conscious trial,2,83,folder/matchedM006.png,1,0.379975253,1,4,1,2
7,conscious trial,2,84,folder/matchedM006.png,1,0.551779267,1,2,1,2
7,conscious trial,2,85,folder/matchedM021.png,1,0.468696065,1,3,1,2
7,conscious trial,2,86,folder/matchedh20.jpg,2,1.091949297,1,3,2,1
7,conscious trial,2,87,folder/matchedM006.png,1,0.532381004,1,3,1,2
7,conscious trial,2,88,folder/matchedM087.png,1,0.581852507,1,4,1,2
7,conscious trial,2,89,folder/matchedM017.png,1,0.501735336,1,2,1,2
7,conscious trial,2,90,folder/matchedM006.png,1,0.469274955,1,1,1,2
7,conscious trial,2,91,folder/matchedh16.jpg,2,0.741946108,1,2,2,1
7,conscious trial,2,92,folder/matchedM017.png,1,0.632173582,1,1,1,2
7,conscious trial,2,93,folder/matchedM017.png,1,0.537874332,1,2,1,2
7,conscious trial,2,94,folder/matchedM023.png,1,0.562884781,1,2,1,2
7,conscious trial,2,95,folder/matchedh14.jpg,2,0.708412318,1,4,2,1
7,conscious trial,2,96,folder/matchedM001.png,1,0.513937936,1,3,1,2
7,conscious trial,2,97,folder/matchedM103.png,1,0.630746461,1,4,1,2
7,conscious trial,2,98,folder/matchedM102.png,1,0.978324164,1,1,1,2
7,conscious trial,2,99,folder/matchedM067.png,1,0.509487337,1,3,1,2
7,conscious trial,2,100,folder/matchedM087.png,1,0.598783171,1,1,1,2
7,experimental trial,1,1,folder/matchedM094.png,1,1.499813715,1,1,1,1
7,experimental trial,1,2,folder/matchedM098.png,1,1.411196169,1,1,1,1
7,experimental trial,1,3,folder/matchedM100.png,1,2.519630243,1,4,2,4
7,experimental trial,1,4,folder/matchedM016.png,1,1.070385144,1,1,2,1
7,experimental trial,1,5,folder/matchedM100.png,1,1.695887804,1,4,1,4
7,experimental trial,1,6,folder/matchedM098.png,1,1.252089805,1,1,1,1
7,experimental trial,1,7,folder/matchedM004.png,1,1.782499732,1,3,1,3
7,experimental trial,1,8,folder/matchedh21.jpg,2,1.47203735,1,4,1,4
7,experimental trial,1,9,folder/matchedh22.jpg,2,1.730663807,1,4,2,4
7,experimental trial,1,10,folder/matchedM100.png,1,1.760004062,1,4,2,4
7,experimental trial,1,11,folder/matchedM072.png,1,2.682298402,1,4,1,4
7,experimental trial,1,12,folder/matchedM094.png,1,1.674805259,1,1,2,1
7,experimental trial,1,13,folder/matchedM024.png,1,1.181262981,1,1,1,1
7,experimental trial,1,14,folder/matchedh23.jpg,2,2.35082799,1,3,2,3
7,experimental trial,1,15,folder/matchedh15.jpg,2,1.861757029,1,2,1,2
7,experimental trial,1,16,folder/matchedM096.png,1,1.601665925,1,1,2,1
7,experimental trial,1,17,folder/matchedM016.png,1,1.769369123,1,2,1,2
7,experimental trial,1,18,folder/matchedM094.png,1,1.369657598,1,3,1,3
7,experimental trial,1,19,folder/matchedM004.png,1,1.16953355,1,2,1,2
7,experimental trial,1,20,folder/matchedM094.png,1,1.029473933,1,2,1,2
7,experimental trial,1,21,folder/matchedM072.png,1,1.489656363,1,4,2,4
7,experimental trial,1,22,folder/matchedM098.png,1,0.96730337,1,2,1,2
7,experimental trial,1,23,folder/matchedM096.png,1,1.888394049,1,3,2,3
7,experimental trial,1,24,folder/matchedM004.png,1,1.771982063,1,4,1,4
7,experimental trial,1,25,folder/matchedM016.png,1,1.072342434,1,2,2,2
7,experimental trial,1,26,folder/matchedM020.png,1,1.023830902,1,2,2,2
7,experimental trial,1,27,folder/matchedM020.png,1,1.430238052,1,1,2,1
7,experimental trial,1,28,folder/matchedM016.png,1,0.938986385,1,3,2,3
7,experimental trial,1,29,folder/matchedM019.png,1,1.081263761,1,1,2,1
7,experimental trial,1,30,folder/matchedM024.png,1,1.690870749,1,3,1,3
7,experimental trial,1,31,folder/matchedh10.jpg,2,1.580896394,1,4,1,4
7,experimental trial,1,32,folder/matchedM020.png,1,1.240854103,1,1,2,1
7,experimental trial,1,33,folder/matchedh6.jpg,2,1.763166589,1,4,1,4
7,experimental trial,1,34,folder/matchedM020.png,1,1.111143788,1,3,1,3
7,experimental trial,1,35,folder/matchedM024.png,1,1.172852538,1,3,1,3
7,experimental trial,1,36,folder/matchedM100.png,1,1.023129674,1,2,1,2
7,experimental trial,1,37,folder/matchedM019.png,1,1.101415339,1,3,1,3
7,experimental trial,1,38,folder/matchedM072.png,1,1.251831043,1,3,2,3
7,experimental trial,1,39,folder/matchedM024.png,1,1.193256282,1,1,2,1
7,experimental trial,1,40,folder/matchedM096.png,1,1.590369349,1,4,2,4
7,experimental trial,1,41,folder/matchedM019.png,1,0.894363596,1,2,2,2
7,experimental trial,1,42,folder/matchedM098.png,1,1.150367781,1,1,1,1
7,experimental trial,1,43,folder/matchedh3.jpg,2,1.272061553,1,1,2,1
7,experimental trial,1,44,folder/matchedM019.png,1,0.950605445,1,1,2,1
7,experimental trial,1,45,folder/matchedh1.jpg,2,1.362563905,1,2,2,2
7,experimental trial,1,46,folder/matchedM072.png,1,1.060233972,1,2,1,2
7,experimental trial,1,47,folder/matchedM096.png,1,0.992357003,1,2,1,2
7,experimental trial,1,48,folder/matchedM004.png,1,1.399243345,1,3,1,3
7,experimental trial,1,49,folder/matchedh5.jpg,2,1.241732473,1,3,1,3
7,experimental trial,1,50,folder/matchedh19.jpg,2,4.401785457,1,2,1,2
7,experimental trial,2,51,folder/matchedh22.jpg,2,1.725208481,1,3,1,3
7,experimental trial,2,52,folder/matchedM072.png,1,1.319673847,1,1,1,1
7,experimental trial,2,53,folder/matchedM016.png,1,1.20329715,1,1,2,1
7,experimental trial,2,54,folder/matchedM016.png,1,1.239495139,1,3,2,3
7,experimental trial,2,55,folder/matchedM004.png,1,1.530509848,1,2,1,2
7,experimental trial,2,56,folder/matchedM100.png,1,1.317139865,1,2,1,2
7,experimental trial,2,57,folder/matchedh19.jpg,2,2.410586528,1,4,2,4
7,experimental trial,2,58,folder/matchedh6.jpg,2,1.449996057,1,2,1,2
7,experimental trial,2,59,folder/matchedM020.png,1,1.460603861,1,4,2,4
7,experimental trial,2,60,folder/matchedM094.png,1,1.530082164,1,3,1,3
7,experimental trial,2,61,folder/matchedM019.png,1,1.452954385,1,3,2,3
7,experimental trial,2,62,folder/matchedM094.png,1,1.635034548,1,4,2,4
7,experimental trial,2,63,folder/matchedM020.png,1,1.321787381,1,1,2,1
7,experimental trial,2,64,folder/matchedM019.png,1,1.131533285,1,1,2,1
7,experimental trial,2,65,folder/matchedM094.png,1,1.870597676,1,2,1,2
7,experimental trial,2,66,folder/matchedM096.png,1,1.430109372,1,1,2,1
7,experimental trial,2,67,folder/matchedM096.png,1,1.462890795,1,2,1,2
7,experimental trial,2,68,folder/matchedM024.png,1,1.235409996,1,1,2,1
7,experimental trial,2,69,folder/matchedM016.png,1,0.860806678,1,2,2,2
7,experimental trial,2,70,folder/matchedM096.png,1,1.130979326,1,1,1,1
7,experimental trial,2,71,folder/matchedM024.png,1,1.41997646,1,3,2,3
7,experimental trial,2,72,folder/matchedM019.png,1,1.559951431,1,4,2,4
7,experimental trial,2,73,folder/matchedh15.jpg,2,2.580763114,1,1,2,1
7,experimental trial,2,74,folder/matchedM072.png,1,1.211387292,1,1,2,1
7,experimental trial,2,75,folder/matchedM096.png,1,1.120171163,1,3,2,3
7,experimental trial,2,76,folder/matchedM019.png,1,2.119819783,1,2,1,2
7,experimental trial,2,77,folder/matchedM024.png,1,1.090883264,1,1,1,1
7,experimental trial,2,78,folder/matchedM020.png,1,1.150240188,1,4,1,4
7,experimental trial,2,79,folder/matchedM024.png,1,1.380731369,1,4,2,4
7,experimental trial,2,80,folder/matchedh5.jpg,2,2.04096034,1,1,2,1
7,experimental trial,2,81,folder/matchedM072.png,1,1.031366058,1,2,2,2
7,experimental trial,2,82,folder/matchedM004.png,1,0.913625984,1,2,2,2
7,experimental trial,2,83,folder/matchedh23.jpg,2,1.071785314,1,3,2,3
7,experimental trial,2,84,folder/matchedM098.png,1,0.931338211,1,1,1,1
7,experimental trial,2,85,folder/matchedM072.png,1,1.3915849,1,1,2,1
7,experimental trial,2,86,folder/matchedh1.jpg,2,4.071481153,1,3,1,3
7,experimental trial,2,87,folder/matchedM098.png,1,1.210650038,1,1,1,1
7,experimental trial,2,88,folder/matchedh10.jpg,2,1.051654176,1,3,1,3
7,experimental trial,2,89,folder/matchedM100.png,1,3.421069958,1,4,2,4
7,experimental trial,2,90,folder/matchedM100.png,1,1.581714606,1,1,2,1
7,experimental trial,2,91,folder/matchedh21.jpg,2,2.059122225,1,1,2,1
7,experimental trial,2,92,folder/matchedM100.png,1,1.37954046,1,3,1,3
7,experimental trial,2,93,folder/matchedM004.png,1,1.219800942,1,4,2,4
7,experimental trial,2,94,folder/matchedM016.png,1,1.139723275,1,4,1,4
7,experimental trial,2,95,folder/matchedM098.png,1,1.328627275,1,3,1,3
7,experimental trial,2,96,folder/matchedh3.jpg,2,1.258913662,1,3,2,3
