"","Subject","Block","Trial","Stimulus","Group","RT","Acc","Location","Eye","Response","Condition"
"1",101,1,1,"f42887_e_021",1,1.389223244,1,10,2,4,1
"2",101,1,2,"f42887_e_203",1,1.084467741,1,9,2,3,1
"3",101,1,3,"f42887_e_111",1,1.245008425,1,9,2,3,1
"4",101,1,4,"f42887_e_176",1,1.075122793,1,10,1,4,1
"5",101,1,5,"f42887_e_216",1,1.265364714,1,9,1,3,1
"6",101,1,6,"f42887_e_062",1,1.782973124,1,9,1,3,1
"7",101,1,7,"f42887_e_253",1,1.604812117,1,9,1,3,1
"8",101,1,8,"f42887_e_002",1,0.905867237,1,10,1,4,1
"9",101,1,9,"f42887_e_091",1,1.494666199,1,9,1,3,1
"10",101,1,10,"f42887_e_243",1,1.394861669,1,10,2,4,1
"11",101,1,11,"f42887_e_120",1,1.204951,1,10,2,4,1
"12",101,1,12,"f42887_e_141",1,1.24483077,1,9,1,3,1
"13",101,1,13,"f42887_e_219",1,1.104665707,1,10,2,4,1
"14",101,1,14,"f42887_e_278",1,1.10465203,1,10,2,4,1
"15",101,1,15,"f42887_e_295",1,0.794427857,1,10,1,4,1
"16",101,1,16,"f42887_e_240",1,0.974230556,1,10,1,4,1
"17",101,1,17,"f42887_e_189",1,1.284323567,1,9,1,3,1
"18",101,1,18,"f42887_e_188",1,1.054129376,1,9,1,3,1
"19",101,1,19,"f42887_e_071",1,1.424152789,1,9,2,3,1
"20",101,1,20,"f42887_e_275",1,1.04396591,1,10,1,4,1
"21",101,1,21,"f42887_e_207",1,1.144015869,1,10,1,4,1
"22",101,1,22,"f42887_e_136",1,1.213954842,1,9,1,3,1
"23",101,1,23,"f42887_e_163",1,2.814131444,1,10,2,4,1
"24",101,1,24,"f42887_e_094",1,1.293704846,1,9,1,3,1
"25",101,1,25,"f42887_e_027",1,1.303949177,1,9,2,3,1
"26",101,1,26,"f42887_e_291",1,1.093067823,1,9,2,3,1
"27",101,1,27,"f42887_e_117",1,0.97325015,1,10,2,4,1
"28",101,1,28,"f42887_e_092",1,0.973386699,1,10,2,4,1
"29",101,1,29,"f42887_e_014",1,1.062791019,1,9,2,3,1
"30",101,1,30,"f42887_e_038",1,1.032857331,1,9,2,3,1
"31",101,1,31,"f42887_e_005",1,1.503382515,1,9,1,3,1
"32",101,1,32,"f42887_e_050",1,1.043117429,1,10,1,4,1
"33",101,1,33,"f42887_e_037",1,1.282931729,1,10,2,4,1
"34",101,1,34,"f42887_e_233",1,1.532949,1,9,1,3,1
"35",101,1,35,"f42887_e_030",1,1.01244777,1,9,1,3,1
"36",101,1,36,"f42887_e_056",1,0.912273124,1,10,1,4,1
"37",101,1,37,"f42887_e_206",1,0.9525135,1,9,1,3,1
"38",101,1,38,"f42887_e_020",1,1.012420891,1,10,2,4,1
"39",101,1,39,"f42887_e_055",1,1.022418342,1,10,1,4,1
"40",101,1,40,"f42887_e_133",1,0.982265316,1,9,1,3,1
"41",101,1,41,"f42887_e_047",1,1.372096857,1,9,1,3,1
"42",101,1,42,"f42887_e_191",1,1.232266707,1,9,2,3,1
"43",101,1,43,"f42887_e_211",1,0.942069977,1,10,1,4,1
"44",101,1,44,"f42887_e_257",1,1.472286489,1,9,2,3,1
"45",101,1,45,"f42887_e_227",1,0.811885951,1,10,1,4,1
"46",101,1,46,"f42887_e_126",1,0.961766368,1,9,2,3,1
"47",101,1,47,"f42887_e_068",1,0.951644056,1,10,1,4,1
"48",101,1,48,"f42887_e_069",1,1.622091256,1,9,1,3,1
"49",101,1,49,"f42887_e_061",1,1.411896436,1,9,1,3,1
"50",101,1,50,"f42887_e_267",1,1.171536962,1,9,2,3,1
"51",101,1,51,"f42887_e_271",1,1.310814433,1,9,1,3,1
"52",101,1,52,"f42887_e_059",1,1.251551583,1,9,2,3,1
"53",101,1,53,"f42887_e_100",1,1.371694639,1,9,1,3,1
"54",101,1,54,"f42887_e_282",1,1.351434865,1,9,2,3,1
"55",101,1,55,"f42887_e_272",1,1.64156203,1,9,1,3,1
"56",101,1,56,"f42887_e_258",1,1.250998504,1,10,2,4,1
"57",101,1,57,"f42887_e_164",1,0.970609203,1,10,2,4,1
"58",101,1,58,"f42887_e_138",1,0.820342729,1,10,1,4,1
"59",101,1,59,"f42887_e_210",1,1.350926165,1,10,1,4,1
"60",101,1,60,"f42887_e_040",1,1.240909199,1,10,1,4,1
"61",101,1,61,"f42887_e_006",1,1.270856267,1,9,1,3,1
"62",101,1,62,"f42887_e_289",1,1.060554004,1,9,1,3,1
"63",101,1,63,"f42887_e_015",1,1.040644699,1,9,1,3,1
"64",101,1,64,"f42887_e_200",1,1.040613665,1,10,1,4,1
"65",101,1,65,"f42887_e_193",1,1.300335955,1,10,2,4,1
"66",101,1,66,"f42887_e_134",1,1.270448398,1,9,2,3,1
"67",101,1,67,"f42887_e_260",1,0.930227383,1,10,2,4,1
"68",101,1,68,"f42887_e_016",1,0.949532579,1,9,1,3,1
"69",101,1,69,"f42887_e_194",1,1.270275034,1,10,2,4,1
"70",101,1,70,"f42887_e_124",1,2.990775053,1,9,1,3,1
"71",101,1,71,"f42887_e_222",1,0.969921549,1,9,2,3,1
"72",101,1,72,"f42887_e_162",1,1.100131116,1,10,1,4,1
"73",101,1,73,"f42887_e_106",1,1.119768094,1,10,2,4,1
"74",101,1,74,"f42887_e_277",1,1.370005124,1,10,2,4,1
"75",101,1,75,"f42887_e_118",1,2.390231308,1,10,1,4,1
"76",101,1,76,"f42887_e_084",1,2.910330872,1,9,1,3,1
"77",101,1,77,"f42887_e_115",1,1.339705662,1,10,2,4,1
"78",101,1,78,"f42887_e_284",1,1.879747135,1,9,2,3,1
"79",101,1,79,"f42887_e_214",1,1.109511594,1,10,1,4,1
"80",101,1,80,"f42887_e_074",1,1.129422237,1,10,1,4,1
"81",101,1,81,"f42887_e_072",1,1.039384256,1,10,1,4,1
"82",101,1,82,"f42887_e_010",1,1.559750966,1,9,2,3,1
"83",101,1,83,"f42887_e_261",1,1.028908872,1,10,1,4,1
"84",101,1,84,"f42887_e_205",1,0.948760549,1,10,2,4,1
"85",101,1,85,"f42887_e_034",1,1.269254752,1,9,2,3,1
"86",101,1,86,"f42887_e_085",1,1.679355617,1,9,2,3,1
"87",101,1,87,"f42887_e_065",1,1.1388165,1,9,2,3,1
"88",101,1,88,"f42887_e_228",1,0.908552763,1,9,2,3,1
"89",101,1,89,"f42887_e_269",1,0.968545233,1,10,1,4,1
"90",101,1,90,"f42887_e_039",1,1.208817677,1,9,2,3,1
"91",101,1,91,"f42887_e_131",1,1.91854338,1,9,1,3,1
"92",101,1,92,"f42887_e_178",1,0.92856718,1,9,2,3,1
"93",101,1,93,"f42887_e_209",1,1.408700774,1,9,2,3,1
"94",101,1,94,"f42887_e_158",1,1.154193752,1,10,2,4,1
"95",101,1,95,"f42887_e_190",1,1.13856868,1,10,2,4,1
"96",101,1,96,"f42887_e_280",1,1.848661853,1,9,2,3,1
"97",101,1,97,"f42887_e_051",1,1.608461838,1,9,2,3,1
"98",101,1,98,"f42887_e_070",1,2.178133549,1,9,1,3,1
"99",101,1,99,"f42887_e_079",1,1.118280951,1,10,2,4,1
"100",101,1,100,"f42887_e_109",1,1.077012135,1,10,2,4,1
"101",101,1,101,"f42887_e_250",1,1.157914921,1,10,2,4,1
"102",101,1,102,"f42887_e_011",1,1.178035184,1,10,2,4,1
"103",101,1,103,"f42887_e_102",1,1.284012357,1,9,1,3,1
"104",101,1,104,"f42887_e_017",1,0.987493275,1,10,1,4,1
"105",101,1,105,"f42887_e_285",1,1.875329996,1,9,2,3,1
"106",101,1,106,"f42887_e_192",1,1.527739936,1,9,1,3,1
"107",101,1,107,"f42887_e_220",1,0.995987522,1,10,1,4,1
"108",101,1,108,"f42887_e_182",1,1.632613669,1,9,2,3,1
"109",101,1,109,"f42887_e_000",1,2.777317526,1,9,1,3,1
"110",101,1,110,"f42887_e_042",1,1.216998951,1,10,2,4,1
"111",101,1,111,"f42887_e_244",1,1.077014729,1,9,2,3,1
"112",101,1,112,"f42887_e_263",1,1.256708094,1,9,1,3,1
"113",101,1,113,"f42887_e_232",1,1.476921846,1,10,2,4,1
"114",101,1,114,"f42887_e_026",1,1.709011639,1,9,2,3,1
"115",101,1,115,"f42887_e_223",1,1.181546274,1,9,2,3,1
"116",101,1,116,"f42887_e_064",1,1.657014537,1,10,2,4,1
"117",101,1,117,"f42887_e_290",1,4.499828019,1,9,1,3,1
"118",101,1,118,"f42887_e_107",1,2.286633034,1,9,1,3,1
"119",101,1,119,"f42887_e_296",1,1.696498489,1,9,2,3,1
"120",101,1,120,"f42887_e_081",1,2.429057282,1,9,2,3,1
"121",101,1,121,"f42887_e_249",1,1.686698425,1,10,1,4,1
"122",101,1,122,"f42887_e_001",1,1.246431545,1,9,2,3,1
"123",101,1,123,"f42887_e_281",1,1.326339786,1,10,1,4,1
"124",101,1,124,"f42887_e_173",1,1.436469293,1,10,1,4,1
"125",101,1,125,"f42887_e_104",1,1.296005297,1,9,2,3,1
"126",101,1,126,"f42887_e_075",1,1.516184312,1,10,2,4,1
"127",101,1,127,"f42887_e_199",1,1.435930511,1,9,1,3,1
"128",101,1,128,"f42887_e_185",1,1.2060095,1,10,1,4,1
"129",101,1,129,"f42887_e_090",1,1.065901793,1,10,2,4,1
"130",101,1,130,"f42887_e_073",1,1.325867372,1,10,1,4,1
"131",101,1,131,"f42887_e_019",1,0.865115842,1,10,2,4,1
"132",101,1,132,"f42887_e_097",1,1.455473613,1,9,1,3,1
"133",101,1,133,"f42887_e_251",1,1.27574215,1,10,2,4,1
"134",101,1,134,"f42887_e_170",1,0.885415925,1,9,2,3,1
"135",101,1,135,"f42887_e_273",1,1.375790429,1,9,1,3,1
"136",101,1,136,"f42887_e_217",1,1.075565955,1,9,2,3,1
"137",101,1,137,"f42887_e_238",1,1.145357387,1,10,2,4,1
"138",101,1,138,"f42887_e_142",1,1.085319774,1,10,1,4,1
"139",101,1,139,"f42887_e_246",1,1.475340346,1,10,1,4,1
"140",101,1,140,"f42887_e_043",1,1.355202372,1,10,1,4,1
"141",101,1,141,"f42887_e_266",1,1.176797759,1,9,2,3,1
"142",101,1,142,"f42887_e_113",1,1.195206323,1,9,2,3,1
"143",101,1,143,"f42887_e_201",1,1.815235214,1,9,1,3,1
"144",101,1,144,"f42887_e_125",1,1.425057237,1,9,2,3,1
"145",101,1,145,"f42887_e_259",1,1.765123049,1,10,1,4,1
"146",101,1,146,"f42887_e_264",1,1.224836895,1,10,2,4,1
"147",101,1,147,"f42887_e_274",1,2.805251711,1,9,1,3,1
"148",101,1,148,"f42887_e_172",1,1.094771079,1,10,1,4,1
"149",101,1,149,"f42887_e_187",1,1.503475699,1,9,1,3,1
"150",101,1,150,"f42887_e_098",1,1.39452341,1,9,1,3,1
"151",101,1,151,"f42887_e_287",1,1.284451334,1,9,1,3,1
"152",101,1,152,"f42887_e_242",1,1.294413248,1,10,2,4,1
"153",101,1,153,"f42887_e_067",1,1.19441023,1,9,1,3,1
"154",101,1,154,"f42887_e_077",1,1.084190805,1,9,2,3,1
"155",101,1,155,"f42887_e_041",1,1.383844368,1,10,2,4,1
"156",101,1,156,"f42887_e_096",1,3.784960639,1,10,2,4,1
"157",101,1,157,"f42887_e_230",1,1.533559805,1,10,2,4,1
"158",101,1,158,"f42887_e_288",1,1.273547015,1,9,2,3,1
"159",101,1,159,"f42887_e_226",1,1.603519222,1,9,1,3,1
"160",101,1,160,"f42887_e_123",1,1.003773865,1,10,1,4,1
"161",101,1,161,"f42887_e_087",1,0.963741357,1,10,1,4,1
"162",101,1,162,"f42887_e_149",1,0.875302395,1,10,1,4,1
"163",101,1,163,"f42887_e_252",1,0.89366609,1,10,2,4,1
"164",101,1,164,"f42887_e_294",1,1.593574237,1,9,1,3,1
"165",101,1,165,"f42887_e_298",1,1.173351463,1,9,2,3,1
"166",101,1,166,"f42887_e_009",1,1.443350245,1,10,1,4,1
"167",101,1,167,"f42887_e_144",1,1.523346613,1,10,2,4,1
"168",101,1,168,"f42887_e_130",1,2.203566722,1,10,1,4,1
"169",101,1,169,"f42887_e_256",1,2.133556906,1,10,1,4,1
"170",101,1,170,"f42887_e_147",1,1.423115226,1,9,1,3,1
"171",101,1,171,"f42887_e_255",1,0.830436,1,9,2,3,1
"172",101,1,172,"f42887_e_053",1,0.982591211,1,9,2,3,1
"173",101,1,173,"f42887_e_154",1,1.022648466,1,10,1,4,1
"174",101,1,174,"f42887_e_143",1,1.412926071,1,9,2,3,1
"175",101,1,175,"f42887_e_283",1,1.212704433,1,10,2,4,1
"176",101,1,176,"f42887_e_139",1,1.082746872,1,9,1,3,1
"177",101,1,177,"f42887_e_128",1,1.722424526,1,9,2,3,1
"178",101,1,178,"f42887_e_229",1,1.382736534,1,9,1,3,1
"179",101,1,179,"f42887_e_265",1,1.412244075,1,10,2,4,1
"180",101,1,180,"f42887_e_151",1,1.862589297,1,10,1,4,1
"181",101,1,181,"f42887_e_204",1,0.921876267,1,10,1,4,1
"182",101,1,182,"f42887_e_213",1,1.472129429,1,9,1,3,1
"183",101,1,183,"f42887_e_174",1,0.731480323,1,10,1,4,1
"184",101,1,184,"f42887_e_045",1,0.951415759,1,10,1,4,1
"185",101,1,185,"f42887_e_101",1,2.302277271,1,10,1,4,1
"186",101,1,186,"f42887_e_157",1,1.801830515,1,10,2,4,1
"187",101,1,187,"f42887_e_140",1,1.061629917,1,10,2,4,1
"188",101,1,188,"f42887_e_135",1,1.161610538,1,10,1,4,1
"189",101,1,189,"f42887_e_234",1,1.361547947,1,9,1,3,1
"190",101,1,190,"f42887_e_048",1,1.031452459,1,9,2,3,1
"191",101,1,191,"f42887_e_181",1,1.421558511,1,10,1,4,1
"192",101,1,192,"f42887_e_184",1,1.731304282,1,10,2,4,1
"193",101,1,193,"f42887_e_286",1,1.291000549,1,10,2,4,1
"194",101,1,194,"f42887_e_231",1,1.391320636,1,9,2,3,1
"195",101,1,195,"f42887_e_035",1,1.311151184,1,9,2,3,1
"196",101,1,196,"f42887_e_169",1,1.390734094,1,9,2,3,1
"197",101,1,197,"f42887_e_137",1,1.191016636,1,10,1,4,1
"198",101,1,198,"f42887_e_112",1,1.690976989,1,9,2,3,1
"199",101,1,199,"f42887_e_031",1,1.04066618,1,10,2,4,1
"200",101,1,200,"f42887_e_103",1,1.200858147,1,10,2,4,1
"201",101,1,201,"f42887_e_121",1,1.310444116,1,10,2,4,1
"202",101,1,202,"f42887_e_254",1,0.600545038,0,10,2,3,1
"203",101,1,203,"f42887_e_241",1,1.420531925,1,10,1,4,1
"204",101,1,204,"f42887_e_276",1,1.020534098,1,10,2,4,1
"205",101,1,205,"f42887_e_195",1,1.050390827,1,9,2,3,1
"206",101,1,206,"f42887_e_165",1,0.940070117,1,10,2,4,1
"207",101,1,207,"f42887_e_196",1,1.410290774,1,9,1,3,1
"208",101,1,208,"f42887_e_268",1,0.93983494,1,9,1,3,1
"209",101,1,209,"f42887_e_063",1,0.889674165,1,10,1,4,1
"210",101,1,210,"f42887_e_215",1,1.169590072,1,9,2,3,1
"211",101,1,211,"f42887_e_044",1,1.220153925,1,10,1,4,1
"212",101,1,212,"f42887_e_177",1,1.410311241,1,10,1,4,1
"213",101,1,213,"f42887_e_054",1,1.020101647,1,10,2,4,1
"214",101,1,214,"f42887_e_025",1,1.229734628,1,10,2,4,1
"215",101,1,215,"f42887_e_029",1,1.224769793,1,9,2,3,1
"216",101,1,216,"f42887_e_167",1,1.269916489,1,10,2,4,1
"217",101,1,217,"f42887_e_018",1,0.839771895,1,10,2,4,1
"218",101,1,218,"f42887_e_057",1,0.809539489,1,10,2,4,1
"219",101,1,219,"f42887_e_089",1,0.869543827,1,10,1,4,1
"220",101,1,220,"f42887_e_132",1,0.814595887,1,10,2,4,1
"221",101,1,221,"f42887_e_060",1,1.309153169,1,9,1,3,1
"222",101,1,222,"f42887_e_197",1,1.079283256,1,10,2,4,1
"223",101,1,223,"f42887_e_270",1,1.069287865,1,10,1,4,1
"224",101,1,224,"f42887_e_095",1,1.27921918,1,10,2,4,1
"225",101,1,225,"f42887_e_237",1,0.988989226,1,10,1,4,1
"226",101,1,226,"f42887_e_166",1,1.068895421,1,10,1,4,1
"227",101,1,227,"f42887_e_161",1,1.358850617,1,9,2,3,1
"228",101,1,228,"f42887_e_247",1,1.848537575,1,9,1,3,1
"229",101,1,229,"f42887_e_292",1,1.298813552,1,9,1,3,1
"230",101,1,230,"f42887_e_033",1,1.869050737,1,9,2,3,1
"231",101,1,231,"f42887_e_221",1,1.388721827,1,10,2,4,1
"232",101,1,232,"f42887_e_076",1,1.458258816,1,9,2,3,1
"233",101,1,233,"f42887_e_156",1,0.858337481,1,10,1,4,1
"234",101,1,234,"f42887_e_023",1,1.108392316,1,10,1,4,1
"235",101,1,235,"f42887_e_171",1,1.645324692,1,10,2,4,1
"236",101,1,236,"f42887_e_155",1,2.508234583,1,10,1,4,1
"237",101,1,237,"f42887_e_122",1,1.597818763,1,9,1,3,1
"238",101,1,238,"f42887_e_175",1,1.377879154,1,9,2,3,1
"239",101,1,239,"f42887_e_086",1,1.027942049,1,10,2,4,1
"240",101,1,240,"f42887_e_186",1,1.867920647,1,9,1,3,1
"241",101,1,241,"f42887_e_078",1,1.097804451,1,10,1,4,1
"242",101,1,242,"f42887_e_013",1,1.407873071,1,9,2,3,1
"243",101,1,243,"f42887_e_080",1,1.457932801,1,9,1,3,1
"244",101,1,244,"f42887_e_202",1,0.887401057,1,10,1,4,1
"245",101,1,245,"f42887_e_180",1,2.097881391,1,10,1,4,1
"246",101,1,246,"f42887_e_235",1,2.087632169,1,10,1,4,1
"247",101,1,247,"f42887_e_088",1,1.627517346,1,9,2,3,1
"248",101,1,248,"f42887_e_028",1,1.087417398,1,10,1,4,1
"249",101,1,249,"f42887_e_066",1,1.39742291,1,10,2,4,1
"250",101,1,250,"f42887_e_024",1,1.647561154,1,10,1,4,1
"251",101,1,251,"f42887_e_032",1,1.176126846,1,9,2,3,1
"252",101,1,252,"f42887_e_245",1,0.906908436,1,10,1,4,1
"253",101,1,253,"f42887_e_218",1,2.997007248,1,9,1,3,1
"254",101,1,254,"f42887_e_212",1,1.367034748,1,9,1,3,1
"255",101,1,255,"f42887_e_225",1,1.826954651,1,9,1,3,1
"256",101,1,256,"f42887_e_036",1,1.376957778,1,10,1,4,1
"257",101,1,257,"f42887_e_004",1,1.433807684,0,9,1,4,1
"258",101,1,258,"f42887_e_116",1,1.556588004,0,9,1,4,1
"259",101,1,259,"f42887_e_007",1,1.326767368,1,10,1,4,1
"260",101,1,260,"f42887_e_248",1,1.105841801,1,10,2,4,1
"261",101,1,261,"f42887_e_099",1,1.886339703,1,9,1,3,1
"262",101,1,262,"f42887_e_119",1,2.036489917,1,9,2,3,1
"263",101,1,263,"f42887_e_279",1,1.046023617,1,10,1,4,1
"264",101,1,264,"f42887_e_049",1,1.216193669,1,10,1,4,1
"265",101,1,265,"f42887_e_022",1,0.876289019,1,10,1,4,1
"266",101,1,266,"f42887_e_198",1,3.026850568,1,9,1,3,1
"267",101,1,267,"f42887_e_236",1,1.086121079,1,10,2,4,1
"268",101,1,268,"f42887_e_297",1,0.986134793,1,10,1,4,1
"269",101,1,269,"f42887_e_127",1,1.075777072,1,10,1,4,1
"270",101,1,270,"f42887_e_058",1,0.865542744,1,9,2,3,1
"271",101,1,271,"f42887_e_046",1,0.895877759,1,10,2,4,1
"272",101,1,272,"f42887_e_146",1,1.156159613,1,10,2,4,1
"273",101,1,273,"f42887_e_262",1,1.565698523,1,9,1,3,1
"274",101,1,274,"f42887_e_160",1,0.955297658,1,10,1,4,1
"275",101,1,275,"f42887_e_159",1,0.955586752,1,9,2,3,1
"276",101,1,276,"f42887_e_052",1,1.115388459,1,9,2,3,1
"277",101,1,277,"f42887_e_003",1,1.025362549,1,10,1,4,1
"278",101,1,278,"f42887_e_114",1,1.165324094,1,10,1,4,1
"279",101,1,279,"f42887_e_150",1,1.254888398,1,10,2,4,1
"280",101,1,280,"f42887_e_208",1,1.061928312,1,9,2,3,1
"281",101,1,281,"f42887_e_082",1,1.315194154,1,9,1,3,1
"282",101,1,282,"f42887_e_224",1,1.155209271,1,10,1,4,1
"283",101,1,283,"f42887_e_239",1,2.385311131,1,9,1,3,1
"284",101,1,284,"f42887_e_145",1,1.244878459,1,10,2,4,1
"285",101,1,285,"f42887_e_299",1,1.114626038,1,10,1,4,1
"286",101,1,286,"f42887_e_152",1,1.534860237,1,9,1,3,1
"287",101,1,287,"f42887_e_153",1,1.364408534,1,10,2,4,1
"288",101,1,288,"f42887_e_148",1,1.414172169,1,9,1,3,1
"289",101,1,289,"f42887_e_110",1,1.354528222,1,9,2,3,1
"290",101,1,290,"f42887_e_093",1,1.324378797,1,10,2,4,1
"291",101,1,291,"f42887_e_179",1,1.634478233,1,9,2,3,1
"292",101,1,292,"f42887_e_008",1,1.704620034,1,9,1,3,1
"293",101,1,293,"f42887_e_168",1,1.113971338,1,10,2,4,1
"294",101,1,294,"f42887_e_012",1,1.503857812,1,9,1,3,1
"295",101,1,295,"f42887_e_129",1,1.124154741,1,10,1,4,1
"296",101,1,296,"f42887_e_083",1,2.512910647,1,9,2,3,1
"297",101,1,297,"f42887_e_183",1,1.894102586,1,9,1,3,1
"298",101,1,298,"f42887_e_293",1,2.124210346,1,10,2,4,1
"299",101,1,299,"f42887_e_105",1,1.273816624,1,9,2,3,1
"300",101,1,300,"f42887_e_108",1,1.503892071,1,10,2,4,1
"301",101,2,301,"f42887_e_240",1,1.330293286,1,9,1,3,1
"302",101,2,302,"f42887_e_256",1,1.26426947,1,9,2,3,1
"303",101,2,303,"f42887_e_272",1,0.933312797,1,9,2,3,1
"304",101,2,304,"f42887_e_117",1,1.08338994,1,9,1,3,1
"305",101,2,305,"f42887_e_164",1,0.993484654,1,10,1,4,1
"306",101,2,306,"f42887_e_140",1,1.083334921,1,10,2,4,1
"307",101,2,307,"f42887_e_053",1,1.412855647,1,10,1,4,1
"308",101,2,308,"f42887_e_202",1,1.502984042,1,10,1,4,1
"309",101,2,309,"f42887_e_207",1,1.162430992,1,9,2,3,1
"310",101,2,310,"f42887_e_157",1,0.862388466,1,10,1,4,1
"311",101,2,311,"f42887_e_184",1,0.962926575,1,10,1,4,1
"312",101,2,312,"f42887_e_109",1,1.333056872,1,9,2,3,1
"313",101,2,313,"f42887_e_165",1,0.982679353,1,10,2,4,1
"314",101,2,314,"f42887_e_080",1,1.677832105,1,10,1,4,1
"315",101,2,315,"f42887_e_011",1,1.112821158,1,10,1,4,1
"316",101,2,316,"f42887_e_205",1,1.97272885,1,10,1,4,1
"317",101,2,317,"f42887_e_054",1,1.11245694,1,10,1,4,1
"318",101,2,318,"f42887_e_125",1,1.302121335,1,9,1,3,1
"319",101,2,319,"f42887_e_021",1,1.372089398,1,9,1,3,1
"320",101,2,320,"f42887_e_153",1,1.212131838,1,10,1,4,1
"321",101,2,321,"f42887_e_252",1,0.911620669,1,9,2,3,1
"322",101,2,322,"f42887_e_099",1,1.222240064,1,9,2,3,1
"323",101,2,323,"f42887_e_141",1,1.011996571,1,10,2,4,1
"324",101,2,324,"f42887_e_208",1,0.931757004,1,9,2,3,1
"325",101,2,325,"f42887_e_170",1,0.911872748,1,9,2,3,1
"326",101,2,326,"f42887_e_146",1,1.358199252,1,9,2,3,1
"327",101,2,327,"f42887_e_178",1,1.111703493,1,10,1,4,1
"328",101,2,328,"f42887_e_126",1,1.441925977,1,9,2,3,1
"329",101,2,329,"f42887_e_061",1,1.031410293,1,10,2,4,1
"330",101,2,330,"f42887_e_226",1,1.041246718,1,10,2,4,1
"331",101,2,331,"f42887_e_051",1,1.201038669,1,9,1,3,1
"332",101,2,332,"f42887_e_168",1,0.90130035,1,9,1,3,1
"333",101,2,333,"f42887_e_174",1,0.841271038,1,9,2,3,1
"334",101,2,334,"f42887_e_188",1,1.080887139,1,9,2,3,1
"335",101,2,335,"f42887_e_179",1,1.62506847,1,9,1,3,1
"336",101,2,336,"f42887_e_095",1,1.328785507,1,10,1,4,1
"337",101,2,337,"f42887_e_196",1,1.450811684,1,9,2,3,1
"338",101,2,338,"f42887_e_024",1,0.980538692,1,9,2,3,1
"339",101,2,339,"f42887_e_241",1,2.111215425,1,9,2,3,1
"340",101,2,340,"f42887_e_130",1,1.671036966,1,9,1,3,1
"341",101,2,341,"f42887_e_255",1,0.960957782,1,10,1,4,1
"342",101,2,342,"f42887_e_233",1,1.470757996,1,9,2,3,1
"343",101,2,343,"f42887_e_038",1,1.030596504,1,9,2,3,1
"344",101,2,344,"f42887_e_096",1,1.050694662,1,9,2,3,1
"345",101,2,345,"f42887_e_154",1,1.040339658,1,9,2,3,1
"346",101,2,346,"f42887_e_151",1,1.310071681,1,10,1,4,1
"347",101,2,347,"f42887_e_148",1,1.140403774,1,9,1,3,1
"348",101,2,348,"f42887_e_102",1,0.940189477,1,9,1,3,1
"349",101,2,349,"f42887_e_064",1,1.080233132,1,10,2,4,1
"350",101,2,350,"f42887_e_081",1,1.220212161,1,10,1,4,1
"351",101,2,351,"f42887_e_094",1,0.996979605,1,10,1,4,1
"352",101,2,352,"f42887_e_106",1,1.250243695,1,9,2,3,1
"353",101,2,353,"f42887_e_199",1,1.290030116,1,10,1,4,1
"354",101,2,354,"f42887_e_026",1,1.300102966,1,10,2,4,1
"355",101,2,355,"f42887_e_006",1,1.009872774,1,9,1,3,1
"356",101,2,356,"f42887_e_217",1,1.269722158,1,9,2,3,1
"357",101,2,357,"f42887_e_246",1,1.038790135,1,10,2,4,1
"358",101,2,358,"f42887_e_197",1,1.499907989,1,10,1,4,1
"359",101,2,359,"f42887_e_293",1,1.079086019,1,9,1,3,1
"360",101,2,360,"f42887_e_087",1,1.079235094,1,10,1,4,1
"361",101,2,361,"f42887_e_085",1,1.409438812,1,9,2,3,1
"362",101,2,362,"f42887_e_297",1,1.30941438,1,9,1,3,1
"363",101,2,363,"f42887_e_001",1,1.899471827,1,9,2,3,1
"364",101,2,364,"f42887_e_049",1,1.179048135,1,9,2,3,1
"365",101,2,365,"f42887_e_158",1,1.999022624,1,9,1,3,1
"366",101,2,366,"f42887_e_077",1,1.316279537,1,10,2,4,1
"367",101,2,367,"f42887_e_280",1,1.068983109,1,10,2,4,1
"368",101,2,368,"f42887_e_147",1,1.329098947,1,9,2,3,1
"369",101,2,369,"f42887_e_234",1,1.119047541,1,9,1,3,1
"370",101,2,370,"f42887_e_248",1,1.338881241,1,10,2,4,1
"371",101,2,371,"f42887_e_201",1,1.128599072,1,9,2,3,1
"372",101,2,372,"f42887_e_131",1,0.928562583,1,9,2,3,1
"373",101,2,373,"f42887_e_210",1,1.008563729,1,9,2,3,1
"374",101,2,374,"f42887_e_040",1,1.527969286,1,9,2,3,1
"375",101,2,375,"f42887_e_046",1,1.007873188,1,10,2,4,1
"376",101,2,376,"f42887_e_247",1,1.137872782,1,10,2,4,1
"377",101,2,377,"f42887_e_253",1,1.15794618,1,10,2,4,1
"378",101,2,378,"f42887_e_223",1,1.76849282,1,10,2,4,1
"379",101,2,379,"f42887_e_134",1,1.477609632,1,9,2,3,1
"380",101,2,380,"f42887_e_032",1,1.340117989,1,9,1,3,1
"381",101,2,381,"f42887_e_144",1,1.22776947,1,10,1,4,1
"382",101,2,382,"f42887_e_027",1,1.76951797,1,9,1,3,1
"383",101,2,383,"f42887_e_185",1,1.087693654,1,9,1,3,1
"384",101,2,384,"f42887_e_103",1,0.947101564,1,9,1,3,1
"385",101,2,385,"f42887_e_270",1,1.087186372,1,10,2,4,1
"386",101,2,386,"f42887_e_237",1,1.367402361,1,9,2,3,1
"387",101,2,387,"f42887_e_120",1,1.177476808,1,9,2,3,1
"388",101,2,388,"f42887_e_070",1,0.987439214,1,10,1,4,1
"389",101,2,389,"f42887_e_162",1,1.077328319,1,9,2,3,1
"390",101,2,390,"f42887_e_016",1,0.916619523,1,9,1,3,1
"391",101,2,391,"f42887_e_097",1,0.916867549,1,10,1,4,1
"392",101,2,392,"f42887_e_043",1,1.126759549,1,9,1,3,1
"393",101,2,393,"f42887_e_261",1,1.037179425,1,10,1,4,1
"394",101,2,394,"f42887_e_279",1,1.237100932,1,10,2,4,1
"395",101,2,395,"f42887_e_267",1,1.307015169,1,9,1,3,1
"396",101,2,396,"f42887_e_019",1,1.016421568,1,10,2,4,1
"397",101,2,397,"f42887_e_127",1,1.186749075,1,9,2,3,1
"398",101,2,398,"f42887_e_122",1,0.893031541,1,10,2,4,1
"399",101,2,399,"f42887_e_114",1,1.266855011,1,9,1,3,1
"400",101,2,400,"f42887_e_003",1,1.195958797,1,10,1,4,1
"401",101,2,401,"f42887_e_107",1,1.350349331,1,10,1,4,1
"402",101,2,402,"f42887_e_089",1,1.24679,1,10,2,4,1
"403",101,2,403,"f42887_e_116",1,2.016006165,1,10,2,4,1
"404",101,2,404,"f42887_e_010",1,2.026528823,1,9,1,3,1
"405",101,2,405,"f42887_e_090",1,1.136353767,1,10,2,4,1
"406",101,2,406,"f42887_e_007",1,1.22616888,1,9,2,3,1
"407",101,2,407,"f42887_e_245",1,1.036077094,1,9,2,3,1
"408",101,2,408,"f42887_e_071",1,1.075954391,1,9,1,3,1
"409",101,2,409,"f42887_e_136",1,1.206009184,1,9,1,3,1
"410",101,2,410,"f42887_e_108",1,0.74596488,1,9,2,3,1
"411",101,2,411,"f42887_e_192",1,1.3161315,1,9,1,3,1
"412",101,2,412,"f42887_e_068",1,0.897281101,1,9,1,3,1
"413",101,2,413,"f42887_e_093",1,1.235368526,1,10,2,4,1
"414",101,2,414,"f42887_e_139",1,0.755525094,0,10,2,3,1
"415",101,2,415,"f42887_e_263",1,1.305865436,1,9,1,3,1
"416",101,2,416,"f42887_e_066",1,0.985003921,1,9,1,3,1
"417",101,2,417,"f42887_e_078",1,1.194742827,1,9,2,3,1
"418",101,2,418,"f42887_e_075",1,1.295133966,1,9,2,3,1
"419",101,2,419,"f42887_e_221",1,1.375388391,1,9,2,3,1
"420",101,2,420,"f42887_e_013",1,1.335333349,1,10,2,4,1
"421",101,2,421,"f42887_e_198",1,1.395118793,1,10,1,4,1
"422",101,2,422,"f42887_e_145",1,0.945177962,1,9,2,3,1
"423",101,2,423,"f42887_e_009",1,1.604911045,1,9,2,3,1
"424",101,2,424,"f42887_e_137",1,1.655254259,1,9,2,3,1
"425",101,2,425,"f42887_e_190",1,0.88293462,1,9,2,3,1
"426",101,2,426,"f42887_e_251",1,1.124980808,1,10,1,4,1
"427",101,2,427,"f42887_e_028",1,1.014654846,1,10,2,4,1
"428",101,2,428,"f42887_e_278",1,1.114813158,1,9,2,3,1
"429",101,2,429,"f42887_e_029",1,1.314547364,1,10,2,4,1
"430",101,2,430,"f42887_e_265",1,0.903987263,1,10,1,4,1
"431",101,2,431,"f42887_e_129",1,0.920569308,1,9,2,3,1
"432",101,2,432,"f42887_e_018",1,0.844479019,1,9,1,3,1
"433",101,2,433,"f42887_e_076",1,1.053754305,1,10,1,4,1
"434",101,2,434,"f42887_e_113",1,1.424284617,1,9,1,3,1
"435",101,2,435,"f42887_e_224",1,1.374269755,1,10,1,4,1
"436",101,2,436,"f42887_e_004",1,1.414272459,1,9,1,3,1
"437",101,2,437,"f42887_e_176",1,1.063939609,1,9,1,3,1
"438",101,2,438,"f42887_e_035",1,1.103929034,1,10,2,4,1
"439",101,2,439,"f42887_e_052",1,1.074048549,1,10,1,4,1
"440",101,2,440,"f42887_e_167",1,1.944024256,1,9,1,3,1
"441",101,2,441,"f42887_e_143",1,0.813782263,1,10,1,4,1
"442",101,2,442,"f42887_e_171",1,0.953494421,1,9,2,3,1
"443",101,2,443,"f42887_e_181",1,1.183413004,1,9,1,3,1
"444",101,2,444,"f42887_e_211",1,0.933568026,1,10,1,4,1
"445",101,2,445,"f42887_e_281",1,0.813507451,1,10,1,4,1
"446",101,2,446,"f42887_e_216",1,1.453365639,1,9,1,3,1
"447",101,2,447,"f42887_e_112",1,0.983282402,1,10,2,4,1
"448",101,2,448,"f42887_e_079",1,1.29329847,1,9,1,3,1
"449",101,2,449,"f42887_e_124",1,1.323033192,1,9,1,3,1
"450",101,2,450,"f42887_e_239",1,1.052858598,1,10,1,4,1
"451",101,2,451,"f42887_e_015",1,1.203013797,1,9,1,3,1
"452",101,2,452,"f42887_e_020",1,1.072858816,1,10,1,4,1
"453",101,2,453,"f42887_e_098",1,0.762647692,1,10,1,4,1
"454",101,2,454,"f42887_e_060",1,0.922834214,1,9,2,3,1
"455",101,2,455,"f42887_e_209",1,1.202742575,1,9,2,3,1
"456",101,2,456,"f42887_e_292",1,0.902603177,1,10,1,4,1
"457",101,2,457,"f42887_e_232",1,0.95245012,1,10,2,4,1
"458",101,2,458,"f42887_e_023",1,0.962493549,1,10,1,4,1
"459",101,2,459,"f42887_e_250",1,1.142554158,1,10,2,4,1
"460",101,2,460,"f42887_e_115",1,1.252243301,1,9,1,3,1
"461",101,2,461,"f42887_e_286",1,1.71271756,1,9,2,3,1
"462",101,2,462,"f42887_e_294",1,1.002044079,1,10,2,4,1
"463",101,2,463,"f42887_e_225",1,1.342291992,1,9,2,3,1
"464",101,2,464,"f42887_e_285",1,1.012167752,1,10,1,4,1
"465",101,2,465,"f42887_e_230",1,1.232142797,1,9,1,3,1
"466",101,2,466,"f42887_e_034",1,1.112115113,1,9,1,3,1
"467",101,2,467,"f42887_e_123",1,0.911949342,1,9,2,3,1
"468",101,2,468,"f42887_e_291",1,1.07186697,1,10,2,4,1
"469",101,2,469,"f42887_e_194",1,0.841296647,1,9,2,3,1
"470",101,2,470,"f42887_e_203",1,0.991411008,1,9,2,3,1
"471",101,2,471,"f42887_e_180",1,0.731594673,1,9,1,3,1
"472",101,2,472,"f42887_e_219",1,0.886298477,1,10,1,4,1
"473",101,2,473,"f42887_e_067",1,0.901433139,1,9,2,3,1
"474",101,2,474,"f42887_e_132",1,1.401462771,1,10,1,4,1
"475",101,2,475,"f42887_e_229",1,1.10092006,1,10,1,4,1
"476",101,2,476,"f42887_e_161",1,1.161601868,1,10,1,4,1
"477",101,2,477,"f42887_e_050",1,0.950730327,1,9,2,3,1
"478",101,2,478,"f42887_e_166",1,1.001194651,1,10,1,4,1
"479",101,2,479,"f42887_e_269",1,1.201290361,1,10,1,4,1
"480",101,2,480,"f42887_e_220",1,1.20124118,1,9,2,3,1
"481",101,2,481,"f42887_e_133",1,1.401147782,1,10,2,4,1
"482",101,2,482,"f42887_e_289",1,1.020960346,1,10,1,4,1
"483",101,2,483,"f42887_e_065",1,0.830953406,1,10,2,4,1
"484",101,2,484,"f42887_e_118",1,0.860456331,1,9,2,3,1
"485",101,2,485,"f42887_e_017",1,1.100864598,1,9,1,3,1
"486",101,2,486,"f42887_e_072",1,0.830518147,1,9,1,3,1
"487",101,2,487,"f42887_e_149",1,0.890723071,1,10,1,4,1
"488",101,2,488,"f42887_e_086",1,1.230816695,1,9,1,3,1
"489",101,2,489,"f42887_e_187",1,1.16044094,1,9,2,3,1
"490",101,2,490,"f42887_e_288",1,1.440403038,1,9,2,3,1
"491",101,2,491,"f42887_e_276",1,0.970344925,1,10,1,4,1
"492",101,2,492,"f42887_e_105",1,1.340182079,1,9,2,3,1
"493",101,2,493,"f42887_e_275",1,0.880105098,1,9,1,3,1
"494",101,2,494,"f42887_e_215",1,0.964459925,1,9,2,3,1
"495",101,2,495,"f42887_e_000",1,0.939916925,1,9,1,3,1
"496",101,2,496,"f42887_e_163",1,1.111659635,1,10,1,4,1
"497",101,2,497,"f42887_e_047",1,1.329766774,1,9,2,3,1
"498",101,2,498,"f42887_e_030",1,1.019435301,1,9,2,3,1
"499",101,2,499,"f42887_e_204",1,1.269423898,1,10,1,4,1
"500",101,2,500,"f42887_e_012",1,1.009142019,1,9,2,3,1
"501",101,2,501,"f42887_e_055",1,1.270218128,1,10,1,4,1
"502",101,2,502,"f42887_e_088",1,1.079279042,1,9,1,3,1
"503",101,2,503,"f42887_e_159",1,0.869315808,1,9,1,3,1
"504",101,2,504,"f42887_e_172",1,0.949121429,1,10,1,4,1
"505",101,2,505,"f42887_e_092",1,0.899063068,1,9,2,3,1
"506",101,2,506,"f42887_e_152",1,1.099163609,1,10,2,4,1
"507",101,2,507,"f42887_e_128",1,1.268880075,1,9,1,3,1
"508",101,2,508,"f42887_e_022",1,1.118399737,1,9,1,3,1
"509",101,2,509,"f42887_e_206",1,1.249163692,1,9,1,3,1
"510",101,2,510,"f42887_e_298",1,1.418893703,1,10,2,4,1
"511",101,2,511,"f42887_e_056",1,1.198596496,1,9,2,3,1
"512",101,2,512,"f42887_e_135",1,1.278676045,1,10,2,4,1
"513",101,2,513,"f42887_e_195",1,1.898643726,1,10,1,4,1
"514",101,2,514,"f42887_e_191",1,0.998581951,1,10,1,4,1
"515",101,2,515,"f42887_e_155",1,1.628588729,1,9,1,3,1
"516",101,2,516,"f42887_e_044",1,1.008259842,1,9,2,3,1
"517",101,2,517,"f42887_e_268",1,2.228612414,1,9,1,3,1
"518",101,2,518,"f42887_e_283",1,1.097250071,1,10,1,4,1
"519",101,2,519,"f42887_e_036",1,0.877586109,1,10,1,4,1
"520",101,2,520,"f42887_e_058",1,0.688096319,1,10,1,4,1
"521",101,2,521,"f42887_e_014",1,0.807684466,1,10,2,4,1
"522",101,2,522,"f42887_e_266",1,1.357815466,1,9,1,3,1
"523",101,2,523,"f42887_e_183",1,0.947659906,1,10,1,4,1
"524",101,2,524,"f42887_e_121",1,1.378217748,1,9,1,3,1
"525",101,2,525,"f42887_e_150",1,1.127858519,1,9,1,3,1
"526",101,2,526,"f42887_e_104",1,1.157639835,1,10,2,4,1
"527",101,2,527,"f42887_e_290",1,1.307659319,1,10,1,4,1
"528",101,2,528,"f42887_e_042",1,1.237529004,1,10,1,4,1
"529",101,2,529,"f42887_e_200",1,0.907472929,1,10,1,4,1
"530",101,2,530,"f42887_e_039",1,0.971715199,1,10,2,4,1
"531",101,2,531,"f42887_e_033",1,0.895976673,1,10,1,4,1
"532",101,2,532,"f42887_e_189",1,1.91771141,1,9,2,3,1
"533",101,2,533,"f42887_e_084",1,0.797387703,1,10,1,4,1
"534",101,2,534,"f42887_e_287",1,0.877318805,1,9,2,3,1
"535",101,2,535,"f42887_e_045",1,1.137334692,1,9,1,3,1
"536",101,2,536,"f42887_e_156",1,1.017205075,1,9,1,3,1
"537",101,2,537,"f42887_e_277",1,0.638805451,1,9,1,3,1
"538",101,2,538,"f42887_e_284",1,1.367070962,1,10,2,4,1
"539",101,2,539,"f42887_e_213",1,1.157766707,1,10,2,4,1
"540",101,2,540,"f42887_e_218",1,2.577199842,1,9,1,3,1
"541",101,2,541,"f42887_e_244",1,0.836595515,1,10,1,4,1
"542",101,2,542,"f42887_e_296",1,0.987691387,1,10,1,4,1
"543",101,2,543,"f42887_e_259",1,0.926520053,1,10,2,4,1
"544",101,2,544,"f42887_e_175",1,1.05669659,1,9,1,3,1
"545",101,2,545,"f42887_e_227",1,1.08672377,1,10,2,4,1
"546",101,2,546,"f42887_e_002",1,0.966116526,1,9,2,3,1
"547",101,2,547,"f42887_e_031",1,1.175709218,1,9,2,3,1
"548",101,2,548,"f42887_e_212",1,0.996370733,1,10,1,4,1
"549",101,2,549,"f42887_e_249",1,0.966132,1,9,1,3,1
"550",101,2,550,"f42887_e_182",1,1.066067342,1,10,2,4,1
"551",101,2,551,"f42887_e_062",1,0.975758304,1,10,1,4,1
"552",101,2,552,"f42887_e_025",1,1.055254744,1,10,1,4,1
"553",101,2,553,"f42887_e_073",1,1.08608641,1,9,1,3,1
"554",101,2,554,"f42887_e_005",1,1.945943049,1,9,1,3,1
"555",101,2,555,"f42887_e_238",1,1.265797184,1,9,1,3,1
"556",101,2,556,"f42887_e_063",1,0.93554882,1,10,1,4,1
"557",101,2,557,"f42887_e_110",1,0.985529349,1,10,2,4,1
"558",101,2,558,"f42887_e_059",1,0.765345673,1,10,1,4,1
"559",101,2,559,"f42887_e_101",1,0.945397477,1,10,1,4,1
"560",101,2,560,"f42887_e_228",1,0.945460098,1,10,1,4,1
"561",101,2,561,"f42887_e_074",1,1.205419861,1,10,1,4,1
"562",101,2,562,"f42887_e_214",1,0.827786726,1,10,1,4,1
"563",101,2,563,"f42887_e_048",1,1.145291169,1,9,2,3,1
"564",101,2,564,"f42887_e_186",1,1.054895759,1,10,1,4,1
"565",101,2,565,"f42887_e_222",1,1.325108098,1,9,2,3,1
"566",101,2,566,"f42887_e_260",1,1.064680098,1,10,2,4,1
"567",101,2,567,"f42887_e_236",1,1.194971042,1,10,2,4,1
"568",101,2,568,"f42887_e_299",1,1.844934786,1,9,1,3,1
"569",101,2,569,"f42887_e_271",1,0.984431962,1,9,1,3,1
"570",101,2,570,"f42887_e_264",1,0.894335023,1,9,1,3,1
"571",101,2,571,"f42887_e_262",1,1.084818109,1,10,1,4,1
"572",101,2,572,"f42887_e_274",1,1.15421288,1,9,2,3,1
"573",101,2,573,"f42887_e_069",1,1.064557361,1,10,2,4,1
"574",101,2,574,"f42887_e_243",1,1.794397263,1,9,1,3,1
"575",101,2,575,"f42887_e_173",1,0.783945207,1,10,1,4,1
"576",101,2,576,"f42887_e_057",1,0.974087579,1,9,2,3,1
"577",101,2,577,"f42887_e_008",1,0.843874398,1,10,2,4,1
"578",101,2,578,"f42887_e_169",1,1.164123992,1,10,2,4,1
"579",101,2,579,"f42887_e_235",1,1.023768647,1,9,2,3,1
"580",101,2,580,"f42887_e_258",1,0.803483492,1,10,1,4,1
"581",101,2,581,"f42887_e_138",1,0.943622718,1,10,2,4,1
"582",101,2,582,"f42887_e_193",1,0.943967872,1,9,1,3,1
"583",101,2,583,"f42887_e_160",1,0.793666169,1,9,1,3,1
"584",101,2,584,"f42887_e_083",1,0.903552372,1,10,1,4,1
"585",101,2,585,"f42887_e_295",1,0.833187278,1,10,1,4,1
"586",101,2,586,"f42887_e_041",1,0.93316815,1,10,1,4,1
"587",101,2,587,"f42887_e_242",1,0.883539319,1,9,1,3,1
"588",101,2,588,"f42887_e_254",1,0.953268767,1,10,1,4,1
"589",101,2,589,"f42887_e_111",1,1.563442507,1,9,2,3,1
"590",101,2,590,"f42887_e_142",1,0.913456087,1,9,2,3,1
"591",101,2,591,"f42887_e_037",1,1.442883526,1,9,1,3,1
"592",101,2,592,"f42887_e_100",1,1.663118932,1,9,2,3,1
"593",101,2,593,"f42887_e_177",1,1.212973861,1,9,1,3,1
"594",101,2,594,"f42887_e_273",1,1.013184696,1,10,2,4,1
"595",101,2,595,"f42887_e_082",1,1.083067286,1,10,1,4,1
"596",101,2,596,"f42887_e_257",1,1.062953011,1,10,2,4,1
"597",101,2,597,"f42887_e_282",1,0.882570357,1,9,1,3,1
"598",101,2,598,"f42887_e_119",1,0.871908477,1,9,1,3,1
"599",101,2,599,"f42887_e_091",1,1.042719147,1,10,1,4,1
"600",101,2,600,"f42887_e_231",1,1.432632004,1,9,2,3,1
"601",110,1,1,"f42887_e_056",1,1.235890631,1,10,2,4,1
"602",110,1,2,"f42887_e_075",1,1.848150551,1,9,2,3,1
"603",110,1,3,"f42887_e_068",1,1.888061905,1,9,2,3,1
"604",110,1,4,"f42887_e_201",1,1.265195429,0,9,1,4,1
"605",110,1,5,"f42887_e_249",1,1.786607992,1,10,2,4,1
"606",110,1,6,"f42887_e_170",1,1.945441821,1,9,2,3,1
"607",110,1,7,"f42887_e_035",1,4.328074421,1,9,2,3,1
"608",110,1,8,"f42887_e_091",1,2.803519218,1,10,1,4,1
"609",110,1,9,"f42887_e_172",1,1.805337621,1,10,2,4,1
"610",110,1,10,"f42887_e_270",1,2.117525867,1,9,1,3,1
"611",110,1,11,"f42887_e_202",1,2.09634141,1,9,2,3,1
"612",110,1,12,"f42887_e_180",1,1.276159595,1,9,2,3,1
"613",110,1,13,"f42887_e_259",1,3.1971867,1,9,1,3,1
"614",110,1,14,"f42887_e_131",1,1.872788097,1,10,1,4,1
"615",110,1,15,"f42887_e_073",1,1.4623469,1,9,2,3,1
"616",110,1,16,"f42887_e_031",1,2.01429732,1,9,1,3,1
"617",110,1,17,"f42887_e_060",1,3.502250297,1,10,2,4,1
"618",110,1,18,"f42887_e_234",1,1.623477081,1,9,1,3,1
"619",110,1,19,"f42887_e_229",1,1.532527985,1,9,1,3,1
"620",110,1,20,"f42887_e_162",1,1.158266804,1,10,1,4,1
"621",110,1,21,"f42887_e_037",1,1.903791454,1,9,2,3,1
"622",110,1,22,"f42887_e_248",1,1.272789555,1,10,2,4,1
"623",110,1,23,"f42887_e_101",1,1.323471899,1,9,2,3,1
"624",110,1,24,"f42887_e_039",1,1.790823631,1,9,2,3,1
"625",110,1,25,"f42887_e_120",1,1.123319573,1,9,2,3,1
"626",110,1,26,"f42887_e_063",1,1.557788518,1,10,1,4,1
"627",110,1,27,"f42887_e_230",1,1.13927418,1,9,2,3,1
"628",110,1,28,"f42887_e_217",1,1.923265205,1,10,1,4,1
"629",110,1,29,"f42887_e_265",1,1.340383522,1,10,2,4,1
"630",110,1,30,"f42887_e_134",1,1.373057897,1,9,1,3,1
"631",110,1,31,"f42887_e_015",1,1.523714066,1,9,1,3,1
"632",110,1,32,"f42887_e_130",1,2.0034393,1,10,2,4,1
"633",110,1,33,"f42887_e_261",1,2.73650028,1,9,1,3,1
"634",110,1,34,"f42887_e_087",1,1.205836106,1,10,1,4,1
"635",110,1,35,"f42887_e_094",1,2.957225493,1,10,1,4,1
"636",110,1,36,"f42887_e_205",1,1.623879353,1,9,2,3,1
"637",110,1,37,"f42887_e_099",1,1.735415197,1,10,2,4,1
"638",110,1,38,"f42887_e_189",1,1.265177629,1,9,2,3,1
"639",110,1,39,"f42887_e_033",1,1.702029278,1,10,1,4,1
"640",110,1,40,"f42887_e_007",1,2.070765427,1,10,2,4,1
"641",110,1,41,"f42887_e_014",1,1.202637689,1,10,2,4,1
"642",110,1,42,"f42887_e_150",1,1.604901977,1,10,1,4,1
"643",110,1,43,"f42887_e_288",1,1.435059307,1,9,2,3,1
"644",110,1,44,"f42887_e_165",1,1.803317496,1,9,1,3,1
"645",110,1,45,"f42887_e_247",1,2.531636654,1,10,2,4,1
"646",110,1,46,"f42887_e_253",1,3.769009357,1,10,1,4,1
"647",110,1,47,"f42887_e_078",1,1.404440266,1,9,2,3,1
"648",110,1,48,"f42887_e_054",1,1.833069133,1,9,2,3,1
"649",110,1,49,"f42887_e_163",1,2.402118423,1,10,2,4,1
"650",110,1,50,"f42887_e_190",1,1.637146799,1,9,2,3,1
"651",110,1,51,"f42887_e_050",1,2.035483375,1,9,2,3,1
"652",110,1,52,"f42887_e_133",1,2.804043169,1,10,1,4,1
"653",110,1,53,"f42887_e_071",1,1.568784037,1,9,1,3,1
"654",110,1,54,"f42887_e_088",1,1.868350726,1,9,1,3,1
"655",110,1,55,"f42887_e_064",1,10.03056051,-1,9,1,0,1
"656",110,1,56,"f42887_e_074",1,8.69370366,0,10,1,3,1
"657",110,1,57,"f42887_e_239",1,1.467870305,1,9,1,3,1
"658",110,1,58,"f42887_e_281",1,1.568356739,1,10,1,4,1
"659",110,1,59,"f42887_e_157",1,1.60380017,1,9,1,3,1
"660",110,1,60,"f42887_e_272",1,1.502565861,1,9,1,3,1
"661",110,1,61,"f42887_e_241",1,1.76803981,1,10,1,4,1
"662",110,1,62,"f42887_e_296",1,2.3335004,1,10,2,4,1
"663",110,1,63,"f42887_e_169",1,1.533146274,1,9,2,3,1
"664",110,1,64,"f42887_e_168",1,2.067756554,1,10,1,4,1
"665",110,1,65,"f42887_e_138",1,2.733506558,1,10,2,4,1
"666",110,1,66,"f42887_e_061",1,2.569561502,1,9,1,3,1
"667",110,1,67,"f42887_e_290",1,1.326881375,1,9,1,3,1
"668",110,1,68,"f42887_e_026",1,1.49825914,1,9,1,3,1
"669",110,1,69,"f42887_e_158",1,2.067474669,1,10,2,4,1
"670",110,1,70,"f42887_e_097",1,2.406299397,1,10,2,4,1
"671",110,1,71,"f42887_e_067",1,2.633697329,1,10,1,4,1
"672",110,1,72,"f42887_e_085",1,2.624729182,1,9,1,3,1
"673",110,1,73,"f42887_e_016",1,2.096463928,1,10,2,4,1
"674",110,1,74,"f42887_e_115",1,1.629704093,1,9,1,3,1
"675",110,1,75,"f42887_e_110",1,1.727159967,1,9,1,3,1
"676",110,1,76,"f42887_e_111",1,1.460609338,1,10,1,4,1
"677",110,1,77,"f42887_e_159",1,2.231014227,1,9,1,3,1
"678",110,1,78,"f42887_e_266",1,1.425681528,1,9,2,3,1
"679",110,1,79,"f42887_e_276",1,2.526673475,1,9,2,3,1
"680",110,1,80,"f42887_e_192",1,1.691313923,1,10,2,4,1
"681",110,1,81,"f42887_e_199",1,1.457662735,1,10,2,4,1
"682",110,1,82,"f42887_e_213",1,2.272496438,1,10,2,4,1
"683",110,1,83,"f42887_e_297",1,1.45937438,1,9,2,3,1
"684",110,1,84,"f42887_e_043",1,1.525323502,1,9,2,3,1
"685",110,1,85,"f42887_e_122",1,1.962619175,1,10,1,4,1
"686",110,1,86,"f42887_e_119",1,2.771601371,1,10,2,4,1
"687",110,1,87,"f42887_e_049",1,1.992668697,1,9,1,3,1
"688",110,1,88,"f42887_e_113",1,1.890165085,1,9,1,3,1
"689",110,1,89,"f42887_e_257",1,2.671001652,0,10,2,3,1
"690",110,1,90,"f42887_e_000",1,1.373549443,1,9,1,3,1
"691",110,1,91,"f42887_e_081",1,1.296471889,1,9,2,3,1
"692",110,1,92,"f42887_e_161",1,1.497192783,1,10,2,4,1
"693",110,1,93,"f42887_e_141",1,3.190822095,1,9,1,3,1
"694",110,1,94,"f42887_e_224",1,1.525133038,1,10,1,4,1
"695",110,1,95,"f42887_e_176",1,1.427916223,1,10,2,4,1
"696",110,1,96,"f42887_e_102",1,1.605283362,1,10,2,4,1
"697",110,1,97,"f42887_e_262",1,1.974156469,1,10,2,4,1
"698",110,1,98,"f42887_e_233",1,2.456961387,1,9,1,3,1
"699",110,1,99,"f42887_e_151",1,2.406292318,1,9,2,3,1
"700",110,1,100,"f42887_e_089",1,2.459290157,1,10,2,4,1
"701",110,1,101,"f42887_e_223",1,1.96401256,1,10,1,4,1
"702",110,1,102,"f42887_e_284",1,1.994039669,1,9,1,3,1
"703",110,1,103,"f42887_e_226",1,1.937328402,1,10,2,4,1
"704",110,1,104,"f42887_e_136",1,2.027425993,1,10,1,4,1
"705",110,1,105,"f42887_e_092",1,1.5401877,1,10,2,4,1
"706",110,1,106,"f42887_e_171",1,1.439357483,1,9,1,3,1
"707",110,1,107,"f42887_e_048",1,1.523034053,1,9,2,3,1
"708",110,1,108,"f42887_e_263",1,1.89143067,1,9,2,3,1
"709",110,1,109,"f42887_e_045",1,2.091228311,1,9,2,3,1
"710",110,1,110,"f42887_e_059",1,1.891634992,1,10,1,4,1
"711",110,1,111,"f42887_e_154",1,1.424337891,1,10,2,4,1
"712",110,1,112,"f42887_e_195",1,1.973914798,1,9,2,3,1
"713",110,1,113,"f42887_e_178",1,2.259803439,1,10,1,4,1
"714",110,1,114,"f42887_e_209",1,1.905398352,1,9,2,3,1
"715",110,1,115,"f42887_e_046",1,1.491432234,1,9,2,3,1
"716",110,1,116,"f42887_e_137",1,2.05879343,1,9,1,3,1
"717",110,1,117,"f42887_e_013",1,3.26958861,1,10,1,4,1
"718",110,1,118,"f42887_e_206",1,1.923828186,1,10,2,4,1
"719",110,1,119,"f42887_e_103",1,2.225500966,1,9,2,3,1
"720",110,1,120,"f42887_e_036",1,2.739798016,1,10,2,4,1
"721",110,1,121,"f42887_e_204",1,1.423360898,1,10,2,4,1
"722",110,1,122,"f42887_e_181",1,3.104303635,1,9,1,3,1
"723",110,1,123,"f42887_e_029",1,1.502704074,1,9,2,3,1
"724",110,1,124,"f42887_e_005",1,1.624526153,1,10,1,4,1
"725",110,1,125,"f42887_e_243",1,1.95778209,1,10,1,4,1
"726",110,1,126,"f42887_e_292",1,1.772338666,1,10,2,4,1
"727",110,1,127,"f42887_e_042",1,2.172576484,1,9,1,3,1
"728",110,1,128,"f42887_e_142",1,2.172403263,1,9,2,3,1
"729",110,1,129,"f42887_e_030",1,1.535948923,1,9,2,3,1
"730",110,1,130,"f42887_e_028",1,2.025410801,1,9,1,3,1
"731",110,1,131,"f42887_e_175",1,1.968694632,1,10,2,4,1
"732",110,1,132,"f42887_e_160",1,2.072564147,1,10,2,4,1
"733",110,1,133,"f42887_e_032",1,1.439159593,1,9,2,3,1
"734",110,1,134,"f42887_e_238",1,1.772395222,1,9,1,3,1
"735",110,1,135,"f42887_e_098",1,1.536722537,1,10,2,4,1
"736",110,1,136,"f42887_e_264",1,1.303107154,1,9,2,3,1
"737",110,1,137,"f42887_e_066",1,1.302271577,1,9,2,3,1
"738",110,1,138,"f42887_e_222",1,1.570678399,1,10,2,4,1
"739",110,1,139,"f42887_e_118",1,1.238371632,1,9,2,3,1
"740",110,1,140,"f42887_e_282",1,1.738146719,1,9,1,3,1
"741",110,1,141,"f42887_e_117",1,1.10601455,1,9,2,3,1
"742",110,1,142,"f42887_e_070",1,1.239010087,1,9,2,3,1
"743",110,1,143,"f42887_e_027",1,1.139163835,1,9,2,3,1
"744",110,1,144,"f42887_e_025",1,1.935332672,1,10,1,4,1
"745",110,1,145,"f42887_e_010",1,2.989499634,1,9,1,3,1
"746",110,1,146,"f42887_e_299",1,1.406290937,1,9,1,3,1
"747",110,1,147,"f42887_e_246",1,1.124438211,1,9,2,3,1
"748",110,1,148,"f42887_e_183",1,1.40441612,1,10,2,4,1
"749",110,1,149,"f42887_e_240",1,1.371615953,1,10,1,4,1
"750",110,1,150,"f42887_e_228",1,0.933822005,1,9,1,3,1
"751",110,1,151,"f42887_e_096",1,1.758144159,1,9,1,3,1
"752",110,1,152,"f42887_e_008",1,2.094085621,1,10,1,4,1
"753",110,1,153,"f42887_e_256",1,2.803876528,1,10,2,4,1
"754",110,1,154,"f42887_e_164",1,2.437393013,1,10,1,4,1
"755",110,1,155,"f42887_e_242",1,1.723504963,1,9,1,3,1
"756",110,1,156,"f42887_e_291",1,1.839277852,1,9,2,3,1
"757",110,1,157,"f42887_e_076",1,1.805865982,1,10,1,4,1
"758",110,1,158,"f42887_e_072",1,2.032719888,1,10,2,4,1
"759",110,1,159,"f42887_e_114",1,1.570172911,1,9,2,3,1
"760",110,1,160,"f42887_e_058",1,1.325238326,1,10,1,4,1
"761",110,1,161,"f42887_e_145",1,1.339448679,1,10,1,4,1
"762",110,1,162,"f42887_e_047",1,1.769700282,1,9,1,3,1
"763",110,1,163,"f42887_e_022",1,1.738390567,1,10,1,4,1
"764",110,1,164,"f42887_e_271",1,1.468029849,0,9,1,4,1
"765",110,1,165,"f42887_e_034",1,2.402069818,1,10,2,4,1
"766",110,1,166,"f42887_e_100",1,1.800619832,1,9,2,3,1
"767",110,1,167,"f42887_e_057",1,1.399264796,1,10,2,4,1
"768",110,1,168,"f42887_e_252",1,0.959372281,1,9,2,3,1
"769",110,1,169,"f42887_e_112",1,1.239339396,1,9,2,3,1
"770",110,1,170,"f42887_e_186",1,1.270046687,1,10,1,4,1
"771",110,1,171,"f42887_e_144",1,1.466276342,1,9,1,3,1
"772",110,1,172,"f42887_e_258",1,2.037109281,1,10,2,4,1
"773",110,1,173,"f42887_e_289",1,1.335544425,1,9,1,3,1
"774",110,1,174,"f42887_e_198",1,1.536653575,1,9,1,3,1
"775",110,1,175,"f42887_e_244",1,1.138629313,1,9,2,3,1
"776",110,1,176,"f42887_e_191",1,2.139252057,1,9,2,3,1
"777",110,1,177,"f42887_e_021",1,2.401999616,1,10,1,4,1
"778",110,1,178,"f42887_e_285",1,1.336146526,1,9,2,3,1
"779",110,1,179,"f42887_e_139",1,1.405071845,1,9,2,3,1
"780",110,1,180,"f42887_e_052",1,1.233919191,1,9,1,3,1
"781",110,1,181,"f42887_e_012",1,1.256881879,1,9,1,3,1
"782",110,1,182,"f42887_e_177",1,1.633192711,1,10,1,4,1
"783",110,1,183,"f42887_e_065",1,1.070958451,1,9,2,3,1
"784",110,1,184,"f42887_e_156",1,1.099766411,1,9,2,3,1
"785",110,1,185,"f42887_e_129",1,1.039039285,1,9,2,3,1
"786",110,1,186,"f42887_e_286",1,1.268131975,1,10,2,4,1
"787",110,1,187,"f42887_e_127",1,1.835217253,1,10,1,4,1
"788",110,1,188,"f42887_e_250",1,1.236747182,1,9,2,3,1
"789",110,1,189,"f42887_e_062",1,2.069234303,1,10,1,4,1
"790",110,1,190,"f42887_e_194",1,1.499328418,1,9,1,3,1
"791",110,1,191,"f42887_e_149",1,1.635331455,1,10,2,4,1
"792",110,1,192,"f42887_e_211",1,1.672321006,1,10,2,4,1
"793",110,1,193,"f42887_e_269",1,1.29732447,1,10,2,4,1
"794",110,1,194,"f42887_e_040",1,2.030061422,1,10,2,4,1
"795",110,1,195,"f42887_e_116",1,1.637147769,1,9,2,3,1
"796",110,1,196,"f42887_e_018",1,1.565670258,1,9,2,3,1
"797",110,1,197,"f42887_e_274",1,1.566028809,1,9,1,3,1
"798",110,1,198,"f42887_e_084",1,1.2963961,1,10,2,4,1
"799",110,1,199,"f42887_e_019",1,3.161872836,1,10,1,4,1
"800",110,1,200,"f42887_e_017",1,1.83050864,1,10,2,4,1
"801",110,1,201,"f42887_e_173",1,1.829126466,1,10,2,4,1
"802",110,1,202,"f42887_e_128",1,1.958272338,1,10,1,4,1
"803",110,1,203,"f42887_e_038",1,2.296852944,1,10,1,4,1
"804",110,1,204,"f42887_e_232",1,2.57277719,1,10,2,4,1
"805",110,1,205,"f42887_e_298",1,1.4956885,1,10,1,4,1
"806",110,1,206,"f42887_e_001",1,1.638668702,1,10,2,4,1
"807",110,1,207,"f42887_e_179",1,2.703564415,1,10,2,4,1
"808",110,1,208,"f42887_e_216",1,3.567073213,1,9,1,3,1
"809",110,1,209,"f42887_e_273",1,1.729317538,1,9,1,3,1
"810",110,1,210,"f42887_e_280",1,1.631859721,1,10,2,4,1
"811",110,1,211,"f42887_e_004",1,1.639034936,1,10,1,4,1
"812",110,1,212,"f42887_e_208",1,1.430392197,1,9,1,3,1
"813",110,1,213,"f42887_e_108",1,1.06018754,1,9,2,3,1
"814",110,1,214,"f42887_e_215",1,1.439437568,1,10,2,4,1
"815",110,1,215,"f42887_e_109",1,1.19405672,1,9,1,3,1
"816",110,1,216,"f42887_e_124",1,1.229914674,1,9,2,3,1
"817",110,1,217,"f42887_e_221",1,1.324248585,1,10,2,4,1
"818",110,1,218,"f42887_e_121",1,1.404527006,1,10,2,4,1
"819",110,1,219,"f42887_e_140",1,1.125940276,1,9,2,3,1
"820",110,1,220,"f42887_e_069",1,1.538371868,0,10,2,3,1
"821",110,1,221,"f42887_e_002",1,1.094988622,1,9,2,3,1
"822",110,1,222,"f42887_e_123",1,1.358563614,1,9,2,3,1
"823",110,1,223,"f42887_e_083",1,1.459450718,1,9,1,3,1
"824",110,1,224,"f42887_e_251",1,1.293494749,1,10,2,4,1
"825",110,1,225,"f42887_e_203",1,1.762412038,1,10,2,4,1
"826",110,1,226,"f42887_e_077",1,1.62706977,1,9,2,3,1
"827",110,1,227,"f42887_e_106",1,1.706407555,1,9,1,3,1
"828",110,1,228,"f42887_e_187",1,1.473653117,1,9,1,3,1
"829",110,1,229,"f42887_e_260",1,2.105231045,1,10,1,4,1
"830",110,1,230,"f42887_e_200",1,1.292189096,1,9,1,3,1
"831",110,1,231,"f42887_e_188",1,1.99197165,1,10,2,4,1
"832",110,1,232,"f42887_e_207",1,1.629258642,1,10,2,4,1
"833",110,1,233,"f42887_e_095",1,1.426946406,1,9,2,3,1
"834",110,1,234,"f42887_e_184",1,1.839997602,1,10,2,4,1
"835",110,1,235,"f42887_e_080",1,1.37217134,1,9,1,3,1
"836",110,1,236,"f42887_e_235",1,1.657835738,1,10,1,4,1
"837",110,1,237,"f42887_e_125",1,1.75917411,1,10,2,4,1
"838",110,1,238,"f42887_e_293",1,1.293153789,1,9,2,3,1
"839",110,1,239,"f42887_e_023",1,1.527942378,1,9,2,3,1
"840",110,1,240,"f42887_e_044",1,2.503026283,1,10,1,4,1
"841",110,1,241,"f42887_e_277",1,1.704080703,1,10,2,4,1
"842",110,1,242,"f42887_e_278",1,1.357711541,1,10,2,4,1
"843",110,1,243,"f42887_e_155",1,1.261402952,1,9,2,3,1
"844",110,1,244,"f42887_e_104",1,1.370660403,1,9,2,3,1
"845",110,1,245,"f42887_e_003",1,1.257469586,1,9,1,3,1
"846",110,1,246,"f42887_e_174",1,1.171921379,1,9,2,3,1
"847",110,1,247,"f42887_e_053",1,1.83947426,1,10,1,4,1
"848",110,1,248,"f42887_e_254",1,2.927549518,1,10,1,4,1
"849",110,1,249,"f42887_e_153",1,2.123949163,1,9,2,3,1
"850",110,1,250,"f42887_e_225",1,2.062217143,1,9,2,3,1
"851",110,1,251,"f42887_e_143",1,2.026376027,1,10,1,4,1
"852",110,1,252,"f42887_e_219",1,2.02436832,1,10,2,4,1
"853",110,1,253,"f42887_e_193",1,1.369625238,1,10,2,4,1
"854",110,1,254,"f42887_e_185",1,2.205729751,1,10,1,4,1
"855",110,1,255,"f42887_e_147",1,1.506580772,1,9,1,3,1
"856",110,1,256,"f42887_e_079",1,2.135371931,1,9,1,3,1
"857",110,1,257,"f42887_e_212",1,1.994823088,1,10,2,4,1
"858",110,1,258,"f42887_e_196",1,1.807203285,1,10,1,4,1
"859",110,1,259,"f42887_e_167",1,2.058771701,1,10,2,4,1
"860",110,1,260,"f42887_e_152",1,2.072059478,1,10,1,4,1
"861",110,1,261,"f42887_e_024",1,1.37304316,1,10,1,4,1
"862",110,1,262,"f42887_e_086",1,2.036545127,1,9,2,3,1
"863",110,1,263,"f42887_e_218",1,1.635995379,1,9,1,3,1
"864",110,1,264,"f42887_e_182",1,2.971270535,1,10,1,4,1
"865",110,1,265,"f42887_e_041",1,1.603700524,1,9,1,3,1
"866",110,1,266,"f42887_e_006",1,1.46904059,1,10,1,4,1
"867",110,1,267,"f42887_e_267",1,1.070838956,1,9,2,3,1
"868",110,1,268,"f42887_e_082",1,1.292850697,1,9,2,3,1
"869",110,1,269,"f42887_e_227",1,1.938611359,1,9,1,3,1
"870",110,1,270,"f42887_e_294",1,2.193822922,1,10,2,4,1
"871",110,1,271,"f42887_e_020",1,2.034276602,1,10,2,4,1
"872",110,1,272,"f42887_e_105",1,2.406301735,1,10,1,4,1
"873",110,1,273,"f42887_e_107",1,1.256617833,1,10,1,4,1
"874",110,1,274,"f42887_e_214",1,1.173893447,1,10,1,4,1
"875",110,1,275,"f42887_e_132",1,1.759924251,1,10,2,4,1
"876",110,1,276,"f42887_e_245",1,1.56063011,1,10,2,4,1
"877",110,1,277,"f42887_e_220",1,1.540735275,1,9,1,3,1
"878",110,1,278,"f42887_e_135",1,1.506130068,1,9,2,3,1
"879",110,1,279,"f42887_e_275",1,3.755740418,0,9,1,4,1
"880",110,1,280,"f42887_e_093",1,2.200900898,1,9,1,3,1
"881",110,1,281,"f42887_e_236",1,1.624351658,1,10,2,4,1
"882",110,1,282,"f42887_e_197",1,1.668170772,1,10,2,4,1
"883",110,1,283,"f42887_e_295",1,1.600867833,1,10,1,4,1
"884",110,1,284,"f42887_e_268",1,0.369886325,0,10,1,3,1
"885",110,1,285,"f42887_e_255",1,1.266980852,1,9,1,3,1
"886",110,1,286,"f42887_e_287",1,1.805284156,1,10,2,4,1
"887",110,1,287,"f42887_e_009",1,1.434495371,1,10,2,4,1
"888",110,1,288,"f42887_e_146",1,1.791220835,1,10,1,4,1
"889",110,1,289,"f42887_e_283",1,2.10321871,1,10,1,4,1
"890",110,1,290,"f42887_e_279",1,2.738619965,1,10,1,4,1
"891",110,1,291,"f42887_e_231",1,2.005436587,1,9,1,3,1
"892",110,1,292,"f42887_e_148",1,1.691259758,0,10,2,3,1
"893",110,1,293,"f42887_e_090",1,1.800122234,1,10,1,4,1
"894",110,1,294,"f42887_e_237",1,2.004743092,1,10,1,4,1
"895",110,1,295,"f42887_e_051",1,1.558440521,1,9,2,3,1
"896",110,1,296,"f42887_e_055",1,1.337616734,1,9,2,3,1
"897",110,1,297,"f42887_e_126",1,1.306008836,1,9,2,3,1
"898",110,1,298,"f42887_e_011",1,1.500273554,1,9,2,3,1
"899",110,1,299,"f42887_e_210",1,1.638968534,1,10,1,4,1
"900",110,1,300,"f42887_e_166",1,1.499890154,1,9,1,3,1
"901",110,2,301,"f42887_e_019",1,1.931952955,1,10,1,4,1
"902",110,2,302,"f42887_e_119",1,1.491003808,1,9,1,3,1
"903",110,2,303,"f42887_e_238",1,1.690774528,1,10,2,4,1
"904",110,2,304,"f42887_e_227",1,1.757377999,1,9,1,3,1
"905",110,2,305,"f42887_e_074",1,1.506222647,1,9,2,3,1
"906",110,2,306,"f42887_e_022",1,1.291180254,1,9,1,3,1
"907",110,2,307,"f42887_e_060",1,1.257596066,1,10,2,4,1
"908",110,2,308,"f42887_e_277",1,1.4242522,1,9,2,3,1
"909",110,2,309,"f42887_e_097",1,1.457640378,1,9,2,3,1
"910",110,2,310,"f42887_e_247",1,1.624003322,1,9,1,3,1
"911",110,2,311,"f42887_e_289",1,1.523543105,1,10,1,4,1
"912",110,2,312,"f42887_e_165",1,1.373934289,1,9,1,3,1
"913",110,2,313,"f42887_e_125",1,1.440492497,1,9,2,3,1
"914",110,2,314,"f42887_e_204",1,1.240710664,1,9,1,3,1
"915",110,2,315,"f42887_e_182",1,2.439854363,1,10,1,4,1
"916",110,2,316,"f42887_e_275",1,1.673629666,1,10,2,4,1
"917",110,2,317,"f42887_e_287",1,0.992319387,1,10,2,4,1
"918",110,2,318,"f42887_e_164",1,1.739891101,1,10,1,4,1
"919",110,2,319,"f42887_e_031",1,1.330510059,1,10,2,4,1
"920",110,2,320,"f42887_e_050",1,1.073533256,1,9,1,3,1
"921",110,2,321,"f42887_e_109",1,1.190105437,1,10,1,4,1
"922",110,2,322,"f42887_e_113",1,1.306786515,1,10,1,4,1
"923",110,2,323,"f42887_e_284",1,1.539201144,1,9,2,3,1
"924",110,2,324,"f42887_e_140",1,1.456417876,1,10,2,4,1
"925",110,2,325,"f42887_e_038",1,1.173168994,1,10,1,4,1
"926",110,2,326,"f42887_e_110",1,1.17320817,1,10,2,4,1
"927",110,2,327,"f42887_e_123",1,1.139738237,1,10,2,4,1
"928",110,2,328,"f42887_e_214",1,1.772322707,1,10,1,4,1
"929",110,2,329,"f42887_e_259",1,1.539278718,1,10,2,4,1
"930",110,2,330,"f42887_e_061",1,1.406017011,1,9,1,3,1
"931",110,2,331,"f42887_e_142",1,1.172558416,1,9,2,3,1
"932",110,2,332,"f42887_e_015",1,2.038735773,1,10,2,4,1
"933",110,2,333,"f42887_e_245",1,1.305712191,1,9,1,3,1
"934",110,2,334,"f42887_e_071",1,1.505532554,1,9,1,3,1
"935",110,2,335,"f42887_e_162",1,1.505594373,1,10,2,4,1
"936",110,2,336,"f42887_e_131",1,1.571816985,1,10,2,4,1
"937",110,2,337,"f42887_e_152",1,1.472120229,1,10,1,4,1
"938",110,2,338,"f42887_e_272",1,1.438190175,1,10,2,4,1
"939",110,2,339,"f42887_e_084",1,1.638439858,1,10,1,4,1
"940",110,2,340,"f42887_e_013",1,1.571568055,1,9,1,3,1
"941",110,2,341,"f42887_e_199",1,2.005002327,1,10,1,4,1
"942",110,2,342,"f42887_e_221",1,1.704496719,1,10,1,4,1
"943",110,2,343,"f42887_e_083",1,1.204933195,1,9,2,3,1
"944",110,2,344,"f42887_e_269",1,1.338281391,1,9,2,3,1
"945",110,2,345,"f42887_e_243",1,1.871409972,1,9,2,3,1
"946",110,2,346,"f42887_e_295",1,1.264277789,1,10,2,4,1
"947",110,2,347,"f42887_e_288",1,1.50426451,1,10,2,4,1
"948",110,2,348,"f42887_e_168",1,1.204730366,1,9,2,3,1
"949",110,2,349,"f42887_e_191",1,2.270878453,1,10,2,4,1
"950",110,2,350,"f42887_e_006",1,1.430725857,1,9,2,3,1
"951",110,2,351,"f42887_e_293",1,2.030885698,1,10,1,4,1
"952",110,2,352,"f42887_e_212",1,1.930332147,1,9,1,3,1
"953",110,2,353,"f42887_e_046",1,1.897209817,1,10,2,4,1
"954",110,2,354,"f42887_e_206",1,1.197621465,1,9,2,3,1
"955",110,2,355,"f42887_e_156",1,1.130746324,1,10,2,4,1
"956",110,2,356,"f42887_e_282",1,1.297461002,0,10,2,3,1
"957",110,2,357,"f42887_e_154",1,1.563785125,0,9,1,4,1
"958",110,2,358,"f42887_e_197",1,1.464037129,1,10,2,4,1
"959",110,2,359,"f42887_e_241",1,1.896885981,1,10,1,4,1
"960",110,2,360,"f42887_e_195",1,1.197163848,1,10,2,4,1
"961",110,2,361,"f42887_e_069",1,1.163914256,1,9,2,3,1
"962",110,2,362,"f42887_e_175",1,1.36352692,1,9,2,3,1
"963",110,2,363,"f42887_e_163",1,1.595424275,1,9,1,3,1
"964",110,2,364,"f42887_e_262",1,1.630070572,1,10,1,4,1
"965",110,2,365,"f42887_e_051",1,1.763091525,1,10,2,4,1
"966",110,2,366,"f42887_e_011",1,1.263358077,1,9,2,3,1
"967",110,2,367,"f42887_e_042",1,1.563383602,1,9,2,3,1
"968",110,2,368,"f42887_e_279",1,1.063476926,1,10,2,4,1
"969",110,2,369,"f42887_e_233",1,1.395965335,1,9,1,3,1
"970",110,2,370,"f42887_e_114",1,1.496433807,1,10,1,4,1
"971",110,2,371,"f42887_e_116",1,1.229846641,1,10,2,4,1
"972",110,2,372,"f42887_e_094",1,1.829469129,1,9,2,3,1
"973",110,2,373,"f42887_e_049",1,1.329549701,1,9,1,3,1
"974",110,2,374,"f42887_e_223",1,2.062145354,1,9,1,3,1
"975",110,2,375,"f42887_e_198",1,1.396007334,1,10,1,4,1
"976",110,2,376,"f42887_e_089",1,1.229422497,1,9,2,3,1
"977",110,2,377,"f42887_e_213",1,1.695490626,1,9,2,3,1
"978",110,2,378,"f42887_e_079",1,1.328834654,1,10,2,4,1
"979",110,2,379,"f42887_e_188",1,1.728984476,1,10,2,4,1
"980",110,2,380,"f42887_e_228",1,1.297799045,1,10,1,4,1
"981",110,2,381,"f42887_e_186",1,1.362341437,1,9,1,3,1
"982",110,2,382,"f42887_e_218",1,1.362237377,1,10,2,4,1
"983",110,2,383,"f42887_e_261",1,1.662245236,1,10,1,4,1
"984",110,2,384,"f42887_e_098",1,2.128534976,1,10,2,4,1
"985",110,2,385,"f42887_e_035",1,1.261952749,1,9,1,3,1
"986",110,2,386,"f42887_e_172",1,1.428876911,1,9,2,3,1
"987",110,2,387,"f42887_e_044",1,1.361904406,1,9,1,3,1
"988",110,2,388,"f42887_e_023",1,1.82844932,1,10,2,4,1
"989",110,2,389,"f42887_e_224",1,2.061107324,1,10,1,4,1
"990",110,2,390,"f42887_e_193",1,1.295126027,0,9,1,4,1
"991",110,2,391,"f42887_e_181",1,2.161110728,1,10,2,4,1
"992",110,2,392,"f42887_e_171",1,1.161731542,1,9,1,3,1
"993",110,2,393,"f42887_e_137",1,1.394766433,1,10,2,4,1
"994",110,2,394,"f42887_e_129",1,1.394698415,1,9,1,3,1
"995",110,2,395,"f42887_e_253",1,1.327996648,1,10,1,4,1
"996",110,2,396,"f42887_e_149",1,1.627685758,1,10,2,4,1
"997",110,2,397,"f42887_e_215",1,1.727775981,1,10,2,4,1
"998",110,2,398,"f42887_e_077",1,1.357329028,1,9,1,3,1
"999",110,2,399,"f42887_e_048",1,1.627580109,1,9,2,3,1
"1000",110,2,400,"f42887_e_075",1,1.46071566,1,10,1,4,1
"1001",110,2,401,"f42887_e_090",1,1.698387503,1,10,1,4,1
"1002",110,2,402,"f42887_e_132",1,1.560484476,1,10,1,4,1
"1003",110,2,403,"f42887_e_297",1,1.39425108,1,10,2,4,1
"1004",110,2,404,"f42887_e_135",1,1.893659955,1,10,2,4,1
"1005",110,2,405,"f42887_e_273",1,1.893576196,1,9,1,3,1
"1006",110,2,406,"f42887_e_072",1,1.193836564,1,9,2,3,1
"1007",110,2,407,"f42887_e_029",1,1.427183694,1,10,1,4,1
"1008",110,2,408,"f42887_e_260",1,1.127225417,1,10,2,4,1
"1009",110,2,409,"f42887_e_222",1,1.359908747,1,10,2,4,1
"1010",110,2,410,"f42887_e_012",1,1.260300821,1,9,2,3,1
"1011",110,2,411,"f42887_e_078",1,1.593229772,1,9,1,3,1
"1012",110,2,412,"f42887_e_009",1,0.993260519,1,9,2,3,1
"1013",110,2,413,"f42887_e_014",1,1.191521179,1,9,2,3,1
"1014",110,2,414,"f42887_e_244",1,0.926501922,1,9,2,3,1
"1015",110,2,415,"f42887_e_081",1,1.126120324,1,9,2,3,1
"1016",110,2,416,"f42887_e_063",1,1.192583539,1,10,2,4,1
"1017",110,2,417,"f42887_e_112",1,1.626403756,1,10,1,4,1
"1018",110,2,418,"f42887_e_178",1,1.492518906,1,9,1,3,1
"1019",110,2,419,"f42887_e_151",1,1.759617772,1,10,2,4,1
"1020",110,2,420,"f42887_e_266",1,1.326454396,1,9,1,3,1
"1021",110,2,421,"f42887_e_111",1,1.505017621,1,9,2,3,1
"1022",110,2,422,"f42887_e_105",1,1.558724816,1,10,1,4,1
"1023",110,2,423,"f42887_e_007",1,1.426061886,1,10,2,4,1
"1024",110,2,424,"f42887_e_252",1,1.125832671,1,9,2,3,1
"1025",110,2,425,"f42887_e_080",1,1.440343118,1,10,1,4,1
"1026",110,2,426,"f42887_e_249",1,1.159364217,1,10,2,4,1
"1027",110,2,427,"f42887_e_065",1,1.29158142,1,9,2,3,1
"1028",110,2,428,"f42887_e_203",1,1.505377777,1,9,1,3,1
"1029",110,2,429,"f42887_e_278",1,1.272811367,1,9,2,3,1
"1030",110,2,430,"f42887_e_207",1,1.392138689,1,9,2,3,1
"1031",110,2,431,"f42887_e_000",1,1.258733874,1,9,2,3,1
"1032",110,2,432,"f42887_e_122",1,1.391875191,1,10,1,4,1
"1033",110,2,433,"f42887_e_286",1,1.625343158,1,9,1,3,1
"1034",110,2,434,"f42887_e_240",1,1.391717658,1,10,2,4,1
"1035",110,2,435,"f42887_e_118",1,1.591507874,1,10,1,4,1
"1036",110,2,436,"f42887_e_145",1,1.191685365,1,10,1,4,1
"1037",110,2,437,"f42887_e_136",1,1.629162567,1,10,2,4,1
"1038",110,2,438,"f42887_e_032",1,1.524393178,1,9,1,3,1
"1039",110,2,439,"f42887_e_043",1,1.191771365,1,9,2,3,1
"1040",110,2,440,"f42887_e_159",1,1.324631695,1,9,1,3,1
"1041",110,2,441,"f42887_e_096",1,1.790896563,1,10,1,4,1
"1042",110,2,442,"f42887_e_004",1,1.72439625,1,10,2,4,1
"1043",110,2,443,"f42887_e_220",1,1.892140827,1,10,2,4,1
"1044",110,2,444,"f42887_e_210",1,1.724315164,1,10,1,4,1
"1045",110,2,445,"f42887_e_052",1,1.324360866,1,9,1,3,1
"1046",110,2,446,"f42887_e_166",1,1.391227173,1,10,2,4,1
"1047",110,2,447,"f42887_e_010",1,1.457579525,1,10,1,4,1
"1048",110,2,448,"f42887_e_085",1,1.457704276,0,10,1,3,1
"1049",110,2,449,"f42887_e_037",1,1.190870491,1,9,2,3,1
"1050",110,2,450,"f42887_e_196",1,1.324255175,1,9,2,3,1
"1051",110,2,451,"f42887_e_291",1,1.424109945,1,9,1,3,1
"1052",110,2,452,"f42887_e_033",1,1.457249009,1,9,2,3,1
"1053",110,2,453,"f42887_e_211",1,1.673982288,1,10,1,4,1
"1054",110,2,454,"f42887_e_267",1,1.406346914,1,9,2,3,1
"1055",110,2,455,"f42887_e_005",1,1.307358612,1,9,1,3,1
"1056",110,2,456,"f42887_e_133",1,1.52904363,1,10,1,4,1
"1057",110,2,457,"f42887_e_102",1,1.289967515,1,9,1,3,1
"1058",110,2,458,"f42887_e_189",1,1.790073404,1,10,2,4,1
"1059",110,2,459,"f42887_e_229",1,1.406859576,1,9,1,3,1
"1060",110,2,460,"f42887_e_242",1,1.490191416,1,9,1,3,1
"1061",110,2,461,"f42887_e_157",1,1.439652059,1,10,1,4,1
"1062",110,2,462,"f42887_e_056",1,1.35654788,1,9,1,3,1
"1063",110,2,463,"f42887_e_107",1,1.356435501,1,9,2,3,1
"1064",110,2,464,"f42887_e_138",1,1.356643552,1,10,2,4,1
"1065",110,2,465,"f42887_e_246",1,1.339227579,1,10,2,4,1
"1066",110,2,466,"f42887_e_095",1,1.706005904,1,10,1,4,1
"1067",110,2,467,"f42887_e_039",1,1.672817597,1,10,1,4,1
"1068",110,2,468,"f42887_e_001",1,1.506060644,1,9,2,3,1
"1069",110,2,469,"f42887_e_128",1,1.805739867,1,9,1,3,1
"1070",110,2,470,"f42887_e_236",1,1.539411277,1,10,2,4,1
"1071",110,2,471,"f42887_e_161",1,1.172797011,1,10,1,4,1
"1072",110,2,472,"f42887_e_160",1,1.5257628,1,10,1,4,1
"1073",110,2,473,"f42887_e_134",1,1.338733169,1,10,1,4,1
"1074",110,2,474,"f42887_e_167",1,1.638622823,1,9,1,3,1
"1075",110,2,475,"f42887_e_264",1,1.205632348,1,9,2,3,1
"1076",110,2,476,"f42887_e_170",1,1.239136631,1,9,1,3,1
"1077",110,2,477,"f42887_e_036",1,1.405548311,1,9,1,3,1
"1078",110,2,478,"f42887_e_174",1,1.360593235,1,10,1,4,1
"1079",110,2,479,"f42887_e_106",1,0.905624963,1,9,1,3,1
"1080",110,2,480,"f42887_e_027",1,1.257301688,1,9,1,3,1
"1081",110,2,481,"f42887_e_205",1,1.771898842,1,10,1,4,1
"1082",110,2,482,"f42887_e_290",1,1.005609442,1,9,2,3,1
"1083",110,2,483,"f42887_e_219",1,1.072132138,1,9,1,3,1
"1084",110,2,484,"f42887_e_187",1,1.372001096,1,9,2,3,1
"1085",110,2,485,"f42887_e_067",1,1.305135568,1,9,1,3,1
"1086",110,2,486,"f42887_e_101",1,1.171707858,1,9,2,3,1
"1087",110,2,487,"f42887_e_184",1,1.37148248,1,9,2,3,1
"1088",110,2,488,"f42887_e_062",1,2.037907971,1,10,1,4,1
"1089",110,2,489,"f42887_e_274",1,1.404895038,1,10,2,4,1
"1090",110,2,490,"f42887_e_179",1,1.164202787,1,9,1,3,1
"1091",110,2,491,"f42887_e_239",1,1.729839726,1,10,2,4,1
"1092",110,2,492,"f42887_e_226",1,1.471227281,1,10,2,4,1
"1093",110,2,493,"f42887_e_093",1,1.856414094,1,10,1,4,1
"1094",110,2,494,"f42887_e_148",1,1.364479673,1,9,1,3,1
"1095",110,2,495,"f42887_e_025",1,1.597093308,1,10,2,4,1
"1096",110,2,496,"f42887_e_040",1,1.630284616,1,10,1,4,1
"1097",110,2,497,"f42887_e_017",1,1.43019821,1,10,2,4,1
"1098",110,2,498,"f42887_e_192",1,1.097519697,1,9,2,3,1
"1099",110,2,499,"f42887_e_091",1,1.396955621,1,10,1,4,1
"1100",110,2,500,"f42887_e_209",1,1.463581595,1,10,2,4,1
"1101",110,2,501,"f42887_e_256",1,1.365288656,1,10,1,4,1
"1102",110,2,502,"f42887_e_258",1,1.463588317,1,10,2,4,1
"1103",110,2,503,"f42887_e_041",1,1.896245196,1,9,2,3,1
"1104",110,2,504,"f42887_e_176",1,1.063618102,1,9,2,3,1
"1105",110,2,505,"f42887_e_200",1,2.029772202,1,9,2,3,1
"1106",110,2,506,"f42887_e_250",1,1.263220135,1,10,2,4,1
"1107",110,2,507,"f42887_e_268",1,1.030157951,1,9,2,3,1
"1108",110,2,508,"f42887_e_296",1,1.863209136,1,9,1,3,1
"1109",110,2,509,"f42887_e_283",1,1.196217573,1,10,2,4,1
"1110",110,2,510,"f42887_e_087",1,1.629577489,1,10,1,4,1
"1111",110,2,511,"f42887_e_024",1,1.529513923,1,10,2,4,1
"1112",110,2,512,"f42887_e_124",1,1.329498153,1,10,1,4,1
"1113",110,2,513,"f42887_e_117",1,1.362997981,1,10,2,4,1
"1114",110,2,514,"f42887_e_082",1,1.096219526,1,9,2,3,1
"1115",110,2,515,"f42887_e_153",1,1.796143872,1,9,1,3,1
"1116",110,2,516,"f42887_e_021",1,1.16230426,1,9,2,3,1
"1117",110,2,517,"f42887_e_271",1,1.362728606,1,9,1,3,1
"1118",110,2,518,"f42887_e_068",1,1.262633786,1,9,2,3,1
"1119",110,2,519,"f42887_e_127",1,1.2293672,1,10,2,4,1
"1120",110,2,520,"f42887_e_281",1,1.17354286,1,10,2,4,1
"1121",110,2,521,"f42887_e_003",1,1.162732264,1,10,2,4,1
"1122",110,2,522,"f42887_e_270",1,1.395678818,1,10,1,4,1
"1123",110,2,523,"f42887_e_030",1,1.295443107,1,9,1,3,1
"1124",110,2,524,"f42887_e_185",1,1.030266138,1,9,1,3,1
"1125",110,2,525,"f42887_e_141",1,0.862476884,1,9,2,3,1
"1126",110,2,526,"f42887_e_045",1,0.828928707,1,9,2,3,1
"1127",110,2,527,"f42887_e_190",1,1.362176738,1,10,2,4,1
"1128",110,2,528,"f42887_e_053",1,1.428752664,1,10,2,4,1
"1129",110,2,529,"f42887_e_026",1,1.328134696,1,9,1,3,1
"1130",110,2,530,"f42887_e_276",1,1.06165277,1,10,2,4,1
"1131",110,2,531,"f42887_e_018",1,1.261522993,1,10,1,4,1
"1132",110,2,532,"f42887_e_092",1,1.061632086,1,9,2,3,1
"1133",110,2,533,"f42887_e_066",1,0.99474052,1,9,2,3,1
"1134",110,2,534,"f42887_e_251",1,1.461698371,1,10,2,4,1
"1135",110,2,535,"f42887_e_076",1,1.028356159,1,9,2,3,1
"1136",110,2,536,"f42887_e_248",1,1.294996569,1,10,2,4,1
"1137",110,2,537,"f42887_e_299",1,1.061561974,1,9,2,3,1
"1138",110,2,538,"f42887_e_008",1,1.761310373,1,10,1,4,1
"1139",110,2,539,"f42887_e_143",1,1.427894343,1,10,1,4,1
"1140",110,2,540,"f42887_e_202",1,1.427857084,1,10,1,4,1
"1141",110,2,541,"f42887_e_232",1,1.261051158,1,9,2,3,1
"1142",110,2,542,"f42887_e_108",1,1.061198469,1,9,2,3,1
"1143",110,2,543,"f42887_e_183",1,1.461070541,1,10,2,4,1
"1144",110,2,544,"f42887_e_173",1,1.460517305,1,9,1,3,1
"1145",110,2,545,"f42887_e_208",1,1.305935773,1,9,1,3,1
"1146",110,2,546,"f42887_e_147",1,1.227603198,1,9,1,3,1
"1147",110,2,547,"f42887_e_057",1,1.494137884,1,10,1,4,1
"1148",110,2,548,"f42887_e_294",1,1.727008385,1,10,1,4,1
"1149",110,2,549,"f42887_e_059",1,1.327170673,1,10,2,4,1
"1150",110,2,550,"f42887_e_086",1,1.027310523,1,9,2,3,1
"1151",110,2,551,"f42887_e_292",1,1.458467932,1,9,2,3,1
"1152",110,2,552,"f42887_e_280",1,1.56041777,1,10,1,4,1
"1153",110,2,553,"f42887_e_144",1,1.127189447,1,10,1,4,1
"1154",110,2,554,"f42887_e_088",1,1.026867387,1,10,1,4,1
"1155",110,2,555,"f42887_e_265",1,1.326713229,1,10,2,4,1
"1156",110,2,556,"f42887_e_230",1,1.226409861,1,9,1,3,1
"1157",110,2,557,"f42887_e_103",1,1.259634337,1,9,1,3,1
"1158",110,2,558,"f42887_e_100",1,1.026200013,1,9,2,3,1
"1159",110,2,559,"f42887_e_139",1,1.459760069,1,10,2,4,1
"1160",110,2,560,"f42887_e_028",1,1.193140554,1,9,2,3,1
"1161",110,2,561,"f42887_e_257",1,1.492280976,1,10,2,4,1
"1162",110,2,562,"f42887_e_020",1,1.525903416,1,9,1,3,1
"1163",110,2,563,"f42887_e_126",1,1.392869744,1,10,1,4,1
"1164",110,2,564,"f42887_e_070",1,1.226247565,1,9,1,3,1
"1165",110,2,565,"f42887_e_225",1,1.059633243,1,9,2,3,1
"1166",110,2,566,"f42887_e_002",1,0.826443887,1,9,2,3,1
"1167",110,2,567,"f42887_e_150",1,1.359530513,1,9,1,3,1
"1168",110,2,568,"f42887_e_255",1,1.425771896,1,9,2,3,1
"1169",110,2,569,"f42887_e_216",1,1.15938401,1,9,1,3,1
"1170",110,2,570,"f42887_e_180",1,1.126041354,1,9,2,3,1
"1171",110,2,571,"f42887_e_073",1,1.358861051,1,9,2,3,1
"1172",110,2,572,"f42887_e_054",1,1.592351564,1,10,2,4,1
"1173",110,2,573,"f42887_e_237",1,1.6255243,1,9,2,3,1
"1174",110,2,574,"f42887_e_155",1,1.537650267,1,10,1,4,1
"1175",110,2,575,"f42887_e_263",1,1.824894338,1,10,1,4,1
"1176",110,2,576,"f42887_e_064",1,1.657804584,1,9,1,3,1
"1177",110,2,577,"f42887_e_120",1,2.091751465,1,10,1,4,1
"1178",110,2,578,"f42887_e_235",1,1.391798214,1,9,1,3,1
"1179",110,2,579,"f42887_e_099",1,2.224637795,1,10,1,4,1
"1180",110,2,580,"f42887_e_055",1,1.491491482,1,10,1,4,1
"1181",110,2,581,"f42887_e_177",1,2.257496188,1,9,1,3,1
"1182",110,2,582,"f42887_e_146",1,3.456925509,0,10,2,3,1
"1183",110,2,583,"f42887_e_158",1,1.991321038,1,10,1,4,1
"1184",110,2,584,"f42887_e_194",1,1.957748395,1,10,2,4,1
"1185",110,2,585,"f42887_e_254",1,1.391248312,1,9,2,3,1
"1186",110,2,586,"f42887_e_285",1,1.391215997,1,9,2,3,1
"1187",110,2,587,"f42887_e_016",1,1.224467593,1,9,2,3,1
"1188",110,2,588,"f42887_e_058",1,1.557602576,1,10,1,4,1
"1189",110,2,589,"f42887_e_047",1,1.690912896,1,10,2,4,1
"1190",110,2,590,"f42887_e_231",1,1.757613271,1,10,2,4,1
"1191",110,2,591,"f42887_e_121",1,1.024541148,1,10,2,4,1
"1192",110,2,592,"f42887_e_034",1,1.040389681,1,9,2,3,1
"1193",110,2,593,"f42887_e_104",1,1.274257796,1,10,2,4,1
"1194",110,2,594,"f42887_e_201",1,1.290473357,1,10,2,4,1
"1195",110,2,595,"f42887_e_298",1,1.396665239,1,9,1,3,1
"1196",110,2,596,"f42887_e_130",1,0.941063491,1,10,2,4,1
"1197",110,2,597,"f42887_e_217",1,1.290732551,1,9,2,3,1
"1198",110,2,598,"f42887_e_169",1,1.257238035,1,9,2,3,1
"1199",110,2,599,"f42887_e_115",1,1.806938674,1,10,2,4,1
"1200",110,2,600,"f42887_e_234",1,1.439399994,0,9,1,4,1
"1201",111,1,1,"f42887_e_156",1,1.098037363,1,10,1,4,1
"1202",111,1,2,"f42887_e_276",1,0.993680907,1,10,2,4,1
"1203",111,1,3,"f42887_e_231",1,1.671836303,1,9,2,3,1
"1204",111,1,4,"f42887_e_265",1,3.425780991,1,9,2,3,1
"1205",111,1,5,"f42887_e_094",1,1.526596922,1,10,2,4,1
"1206",111,1,6,"f42887_e_269",1,1.593028416,1,10,1,4,1
"1207",111,1,7,"f42887_e_014",1,1.49312238,1,10,2,4,1
"1208",111,1,8,"f42887_e_141",1,2.025679953,1,9,2,3,1
"1209",111,1,9,"f42887_e_077",1,2.092211082,0,9,2,4,1
"1210",111,1,10,"f42887_e_004",1,1.093211649,1,10,1,4,1
"1211",111,1,11,"f42887_e_244",1,1.059621525,1,10,2,4,1
"1212",111,1,12,"f42887_e_040",1,1.892508452,1,9,2,3,1
"1213",111,1,13,"f42887_e_221",1,1.592649295,1,9,2,3,1
"1214",111,1,14,"f42887_e_232",1,1.859101533,1,10,1,4,1
"1215",111,1,15,"f42887_e_095",1,1.556813642,1,9,1,3,1
"1216",111,1,16,"f42887_e_225",1,1.359004347,1,9,1,3,1
"1217",111,1,17,"f42887_e_249",1,2.695703667,1,9,1,3,1
"1218",111,1,18,"f42887_e_119",1,1.358946246,1,10,2,4,1
"1219",111,1,19,"f42887_e_213",1,2.025111758,1,10,2,4,1
"1220",111,1,20,"f42887_e_170",1,1.425487687,1,9,2,3,1
"1221",111,1,21,"f42887_e_044",1,2.29146402,1,9,1,3,1
"1222",111,1,22,"f42887_e_169",1,4.790323622,1,10,2,4,1
"1223",111,1,23,"f42887_e_252",1,2.891163282,1,10,2,4,1
"1224",111,1,24,"f42887_e_176",1,1.325227634,1,9,2,3,1
"1225",111,1,25,"f42887_e_011",1,1.358312837,1,9,1,3,1
"1226",111,1,26,"f42887_e_223",1,1.191854289,1,9,1,3,1
"1227",111,1,27,"f42887_e_060",1,1.758200786,1,9,2,3,1
"1228",111,1,28,"f42887_e_118",1,1.691550023,1,9,2,3,1
"1229",111,1,29,"f42887_e_136",1,2.190657385,1,9,2,3,1
"1230",111,1,30,"f42887_e_062",1,3.256724458,1,10,1,4,1
"1231",111,1,31,"f42887_e_093",1,2.15756299,1,10,2,4,1
"1232",111,1,32,"f42887_e_248",1,1.891075447,1,9,1,3,1
"1233",111,1,33,"f42887_e_125",1,1.640319164,1,9,2,3,1
"1234",111,1,34,"f42887_e_122",1,1.757541696,1,9,2,3,1
"1235",111,1,35,"f42887_e_253",1,1.340387285,1,10,2,4,1
"1236",111,1,36,"f42887_e_117",1,1.623417273,1,10,2,4,1
"1237",111,1,37,"f42887_e_289",1,1.556455039,1,9,1,3,1
"1238",111,1,38,"f42887_e_131",1,1.456504721,1,9,1,3,1
"1239",111,1,39,"f42887_e_072",1,1.773175727,1,10,2,4,1
"1240",111,1,40,"f42887_e_063",1,2.072695887,1,9,1,3,1
"1241",111,1,41,"f42887_e_052",1,1.656336579,1,10,1,4,1
"1242",111,1,42,"f42887_e_010",1,3.405534614,1,10,1,4,1
"1243",111,1,43,"f42887_e_261",1,1.206315561,1,9,1,3,1
"1244",111,1,44,"f42887_e_008",1,1.506252211,1,10,1,4,1
"1245",111,1,45,"f42887_e_196",1,2.705397894,1,9,2,3,1
"1246",111,1,46,"f42887_e_140",1,4.104870662,1,10,1,4,1
"1247",111,1,47,"f42887_e_227",1,2.305791459,1,9,2,3,1
"1248",111,1,48,"f42887_e_070",1,4.038036017,1,9,2,3,1
"1249",111,1,49,"f42887_e_085",1,1.438774761,1,9,1,3,1
"1250",111,1,50,"f42887_e_073",1,1.572160043,0,10,2,3,1
"1251",111,1,51,"f42887_e_022",1,1.274043715,1,10,1,4,1
"1252",111,1,52,"f42887_e_007",1,1.47218098,1,10,1,4,1
"1253",111,1,53,"f42887_e_153",1,1.305570324,1,10,2,4,1
"1254",111,1,54,"f42887_e_045",1,1.70543048,1,9,1,3,1
"1255",111,1,55,"f42887_e_205",1,1.938625757,1,9,2,3,1
"1256",111,1,56,"f42887_e_079",1,1.728643708,1,10,2,4,1
"1257",111,1,57,"f42887_e_137",1,1.405323361,1,10,1,4,1
"1258",111,1,58,"f42887_e_174",1,1.405318929,1,10,2,4,1
"1259",111,1,59,"f42887_e_074",1,3.170999865,1,9,2,3,1
"1260",111,1,60,"f42887_e_083",1,1.538367319,1,10,1,4,1
"1261",111,1,61,"f42887_e_088",1,1.87145728,1,9,1,3,1
"1262",111,1,62,"f42887_e_216",1,1.838025135,1,9,2,3,1
"1263",111,1,63,"f42887_e_026",1,2.171354512,1,9,2,3,1
"1264",111,1,64,"f42887_e_101",1,1.971368369,1,9,2,3,1
"1265",111,1,65,"f42887_e_278",1,1.571362015,1,9,1,3,1
"1266",111,1,66,"f42887_e_258",1,1.671230623,1,10,1,4,1
"1267",111,1,67,"f42887_e_075",1,1.504540933,1,9,1,3,1
"1268",111,1,68,"f42887_e_066",1,1.971001581,1,9,2,3,1
"1269",111,1,69,"f42887_e_266",1,1.471226123,1,9,1,3,1
"1270",111,1,70,"f42887_e_202",1,1.804354185,1,9,2,3,1
"1271",111,1,71,"f42887_e_215",1,2.063601231,1,9,2,3,1
"1272",111,1,72,"f42887_e_243",1,1.530662799,1,10,1,4,1
"1273",111,1,73,"f42887_e_021",1,1.43063971,1,9,2,3,1
"1274",111,1,74,"f42887_e_134",1,1.563785189,1,9,2,3,1
"1275",111,1,75,"f42887_e_001",1,1.56378693,1,10,1,4,1
"1276",111,1,76,"f42887_e_201",1,1.297078253,1,10,1,4,1
"1277",111,1,77,"f42887_e_184",1,1.430364694,1,9,1,3,1
"1278",111,1,78,"f42887_e_284",1,1.497018961,1,10,2,4,1
"1279",111,1,79,"f42887_e_193",1,1.230533448,1,10,2,4,1
"1280",111,1,80,"f42887_e_179",1,1.196820513,1,10,1,4,1
"1281",111,1,81,"f42887_e_109",1,1.463471144,1,10,2,4,1
"1282",111,1,82,"f42887_e_127",1,1.863323657,1,10,1,4,1
"1283",111,1,83,"f42887_e_189",1,1.8043795,1,9,2,3,1
"1284",111,1,84,"f42887_e_123",1,1.729942522,1,9,2,3,1
"1285",111,1,85,"f42887_e_100",1,1.529055555,1,10,2,4,1
"1286",111,1,86,"f42887_e_195",1,1.56321557,1,10,2,4,1
"1287",111,1,87,"f42887_e_024",1,1.229962024,1,10,2,4,1
"1288",111,1,88,"f42887_e_271",1,1.529330278,1,10,2,4,1
"1289",111,1,89,"f42887_e_239",1,3.89526228,1,10,1,4,1
"1290",111,1,90,"f42887_e_098",1,1.695894702,1,10,1,4,1
"1291",111,1,91,"f42887_e_042",1,2.128992048,0,10,1,3,1
"1292",111,1,92,"f42887_e_245",1,1.629423061,1,9,2,3,1
"1293",111,1,93,"f42887_e_154",1,1.862502656,1,9,1,3,1
"1294",111,1,94,"f42887_e_222",1,4.058979179,1,9,2,3,1
"1295",111,1,95,"f42887_e_228",1,4.727214947,1,10,1,4,1
"1296",111,1,96,"f42887_e_049",1,2.16231137,1,10,1,4,1
"1297",111,1,97,"f42887_e_020",1,1.662354002,1,9,2,3,1
"1298",111,1,98,"f42887_e_206",1,4.227531979,1,10,1,4,1
"1299",111,1,99,"f42887_e_259",1,6.293318018,1,9,2,3,1
"1300",111,1,100,"f42887_e_263",1,1.562165588,1,9,1,3,1
"1301",111,1,101,"f42887_e_240",1,3.297569831,1,10,2,4,1
"1302",111,1,102,"f42887_e_104",1,1.46160944,1,9,1,3,1
"1303",111,1,103,"f42887_e_173",1,1.428095375,1,9,1,3,1
"1304",111,1,104,"f42887_e_027",1,0.962371218,1,9,1,3,1
"1305",111,1,105,"f42887_e_061",1,1.391443025,1,10,1,4,1
"1306",111,1,106,"f42887_e_114",1,2.927430755,1,10,1,4,1
"1307",111,1,107,"f42887_e_149",1,2.871193914,1,9,2,3,1
"1308",111,1,108,"f42887_e_103",1,1.861483445,1,10,2,4,1
"1309",111,1,109,"f42887_e_187",1,3.027685695,1,10,1,4,1
"1310",111,1,110,"f42887_e_233",1,2.061104279,1,9,2,3,1
"1311",111,1,111,"f42887_e_159",1,2.427636361,1,10,1,4,1
"1312",111,1,112,"f42887_e_242",1,1.727440224,1,9,1,3,1
"1313",111,1,113,"f42887_e_055",1,2.727162005,1,10,2,4,1
"1314",111,1,114,"f42887_e_046",1,4.159674165,1,10,1,4,1
"1315",111,1,115,"f42887_e_138",1,3.360163036,1,9,2,3,1
"1316",111,1,116,"f42887_e_143",1,1.560364793,1,10,2,4,1
"1317",111,1,117,"f42887_e_164",1,2.260385795,1,10,1,4,1
"1318",111,1,118,"f42887_e_267",1,1.394248757,1,9,1,3,1
"1319",111,1,119,"f42887_e_041",1,1.693939663,1,9,1,3,1
"1320",111,1,120,"f42887_e_056",1,1.860434359,1,9,2,3,1
"1321",111,1,121,"f42887_e_105",1,1.873103561,1,9,1,3,1
"1322",111,1,122,"f42887_e_097",1,2.892521998,1,9,2,3,1
"1323",111,1,123,"f42887_e_003",1,1.393823399,1,10,2,4,1
"1324",111,1,124,"f42887_e_081",1,1.660230333,1,9,2,3,1
"1325",111,1,125,"f42887_e_217",1,1.693597666,1,9,2,3,1
"1326",111,1,126,"f42887_e_084",1,2.426483271,1,10,1,4,1
"1327",111,1,127,"f42887_e_281",1,1.526848307,1,9,1,3,1
"1328",111,1,128,"f42887_e_298",1,1.493056726,1,10,2,4,1
"1329",111,1,129,"f42887_e_087",1,1.593261219,1,9,1,3,1
"1330",111,1,130,"f42887_e_224",1,1.426710953,1,10,1,4,1
"1331",111,1,131,"f42887_e_032",1,1.326561493,1,9,1,3,1
"1332",111,1,132,"f42887_e_234",1,1.85956044,1,9,2,3,1
"1333",111,1,133,"f42887_e_124",1,1.659513038,1,9,1,3,1
"1334",111,1,134,"f42887_e_251",1,1.692859201,1,10,2,4,1
"1335",111,1,135,"f42887_e_126",1,1.659483384,1,9,2,3,1
"1336",111,1,136,"f42887_e_058",1,1.25925881,1,9,2,3,1
"1337",111,1,137,"f42887_e_017",1,2.625706307,1,10,1,4,1
"1338",111,1,138,"f42887_e_128",1,1.759348653,1,10,2,4,1
"1339",111,1,139,"f42887_e_120",1,1.226149374,1,10,1,4,1
"1340",111,1,140,"f42887_e_268",1,1.925613843,1,9,1,3,1
"1341",111,1,141,"f42887_e_297",1,3.824725624,1,10,1,4,1
"1342",111,1,142,"f42887_e_192",1,1.725553504,1,9,1,3,1
"1343",111,1,143,"f42887_e_089",1,1.725159729,1,9,1,3,1
"1344",111,1,144,"f42887_e_246",1,1.724774349,1,9,2,3,1
"1345",111,1,145,"f42887_e_106",1,1.325668252,1,10,1,4,1
"1346",111,1,146,"f42887_e_000",1,2.337460713,1,9,2,3,1
"1347",111,1,147,"f42887_e_230",1,1.758411314,1,9,1,3,1
"1348",111,1,148,"f42887_e_282",1,1.2585558,1,9,1,3,1
"1349",111,1,149,"f42887_e_160",1,1.625048175,1,10,1,4,1
"1350",111,1,150,"f42887_e_002",1,1.558345334,1,9,1,3,1
"1351",111,1,151,"f42887_e_291",1,1.391916315,1,10,2,4,1
"1352",111,1,152,"f42887_e_064",1,1.858222141,1,9,2,3,1
"1353",111,1,153,"f42887_e_144",1,1.458187265,1,10,1,4,1
"1354",111,1,154,"f42887_e_194",1,1.857570781,1,10,1,4,1
"1355",111,1,155,"f42887_e_065",1,2.457636341,1,9,2,3,1
"1356",111,1,156,"f42887_e_290",1,1.358172692,1,9,2,3,1
"1357",111,1,157,"f42887_e_250",1,1.291577714,1,9,2,3,1
"1358",111,1,158,"f42887_e_162",1,1.191455762,1,9,1,3,1
"1359",111,1,159,"f42887_e_292",1,1.890853483,1,9,2,3,1
"1360",111,1,160,"f42887_e_135",1,1.357770277,1,10,2,4,1
"1361",111,1,161,"f42887_e_207",1,1.724412438,1,10,1,4,1
"1362",111,1,162,"f42887_e_121",1,1.507403289,1,10,2,4,1
"1363",111,1,163,"f42887_e_043",1,1.924099177,1,10,1,4,1
"1364",111,1,164,"f42887_e_151",1,1.690506801,1,10,1,4,1
"1365",111,1,165,"f42887_e_165",1,1.957186587,1,9,1,3,1
"1366",111,1,166,"f42887_e_152",1,1.290391602,1,10,1,4,1
"1367",111,1,167,"f42887_e_054",1,1.690131161,1,9,2,3,1
"1368",111,1,168,"f42887_e_111",1,1.290364865,1,10,1,4,1
"1369",111,1,169,"f42887_e_279",1,3.089638255,1,9,2,3,1
"1370",111,1,170,"f42887_e_188",1,1.390465457,1,10,1,4,1
"1371",111,1,171,"f42887_e_028",1,1.440514493,1,9,1,3,1
"1372",111,1,172,"f42887_e_018",1,1.073678011,1,9,1,3,1
"1373",111,1,173,"f42887_e_191",1,1.139433393,1,10,1,4,1
"1374",111,1,174,"f42887_e_212",1,1.406617484,1,9,1,3,1
"1375",111,1,175,"f42887_e_277",1,2.22290427,1,9,2,3,1
"1376",111,1,176,"f42887_e_110",1,1.456607363,1,10,1,4,1
"1377",111,1,177,"f42887_e_285",1,1.139906574,1,10,2,4,1
"1378",111,1,178,"f42887_e_256",1,1.123343881,1,10,1,4,1
"1379",111,1,179,"f42887_e_200",1,1.039921929,1,10,2,4,1
"1380",111,1,180,"f42887_e_047",1,3.938397508,1,10,2,4,1
"1381",111,1,181,"f42887_e_241",1,2.996210676,1,10,1,4,1
"1382",111,1,182,"f42887_e_030",1,2.572446575,1,9,2,3,1
"1383",111,1,183,"f42887_e_038",1,1.805857711,1,9,2,3,1
"1384",111,1,184,"f42887_e_257",1,1.705634674,1,9,1,3,1
"1385",111,1,185,"f42887_e_116",1,1.40572446,1,10,2,4,1
"1386",111,1,186,"f42887_e_037",1,1.106084662,1,10,2,4,1
"1387",111,1,187,"f42887_e_132",1,1.772503308,1,9,2,3,1
"1388",111,1,188,"f42887_e_071",1,1.305297412,1,9,1,3,1
"1389",111,1,189,"f42887_e_036",1,1.138748116,0,10,1,3,1
"1390",111,1,190,"f42887_e_168",1,2.938108265,1,10,2,4,1
"1391",111,1,191,"f42887_e_015",1,2.371719201,1,10,2,4,1
"1392",111,1,192,"f42887_e_057",1,1.705371984,1,9,1,3,1
"1393",111,1,193,"f42887_e_166",1,1.257678084,1,10,2,4,1
"1394",111,1,194,"f42887_e_218",1,1.863705801,0,10,1,3,1
"1395",111,1,195,"f42887_e_247",1,0.37228133,0,9,1,4,1
"1396",111,1,196,"f42887_e_171",1,1.604573066,0,9,2,4,1
"1397",111,1,197,"f42887_e_198",1,0.805136069,1,9,2,3,1
"1398",111,1,198,"f42887_e_035",1,1.305058647,1,9,1,3,1
"1399",111,1,199,"f42887_e_112",1,1.138455972,1,9,1,3,1
"1400",111,1,200,"f42887_e_295",1,1.138253413,1,9,1,3,1
"1401",111,1,201,"f42887_e_113",1,2.897725254,1,10,2,4,1
"1402",111,1,202,"f42887_e_023",1,1.604303414,1,9,1,3,1
"1403",111,1,203,"f42887_e_181",1,2.197125647,1,10,1,4,1
"1404",111,1,204,"f42887_e_229",1,1.427082604,1,9,1,3,1
"1405",111,1,205,"f42887_e_115",1,2.270731394,1,9,2,3,1
"1406",111,1,206,"f42887_e_220",1,3.136936635,1,9,1,3,1
"1407",111,1,207,"f42887_e_190",1,1.504410235,1,10,2,4,1
"1408",111,1,208,"f42887_e_033",1,1.737237925,1,10,1,4,1
"1409",111,1,209,"f42887_e_182",1,1.264040238,1,9,1,3,1
"1410",111,1,210,"f42887_e_034",1,1.564167296,1,10,1,4,1
"1411",111,1,211,"f42887_e_235",1,4.862510241,1,9,2,3,1
"1412",111,1,212,"f42887_e_092",1,1.762470691,1,10,1,4,1
"1413",111,1,213,"f42887_e_108",1,1.260910756,1,10,1,4,1
"1414",111,1,214,"f42887_e_012",1,1.430599493,1,9,1,3,1
"1415",111,1,215,"f42887_e_031",1,1.996764657,1,9,2,3,1
"1416",111,1,216,"f42887_e_286",1,1.597019376,1,10,1,4,1
"1417",111,1,217,"f42887_e_214",1,1.296959258,1,10,1,4,1
"1418",111,1,218,"f42887_e_264",1,1.230381795,1,10,2,4,1
"1419",111,1,219,"f42887_e_161",1,1.563575033,1,10,2,4,1
"1420",111,1,220,"f42887_e_287",1,2.029894559,1,10,1,4,1
"1421",111,1,221,"f42887_e_005",1,1.330085333,1,9,1,3,1
"1422",111,1,222,"f42887_e_288",1,1.56294497,1,10,2,4,1
"1423",111,1,223,"f42887_e_142",1,2.229131271,1,10,2,4,1
"1424",111,1,224,"f42887_e_146",1,1.562090656,1,10,2,4,1
"1425",111,1,225,"f42887_e_080",1,1.362715682,1,10,2,4,1
"1426",111,1,226,"f42887_e_086",1,0.962983796,1,10,2,4,1
"1427",111,1,227,"f42887_e_208",1,1.362726433,1,9,1,3,1
"1428",111,1,228,"f42887_e_299",1,3.160539105,1,10,1,4,1
"1429",111,1,229,"f42887_e_237",1,1.629306634,0,10,2,3,1
"1430",111,1,230,"f42887_e_294",1,2.356610663,1,10,1,4,1
"1431",111,1,231,"f42887_e_155",1,3.794777706,1,9,1,3,1
"1432",111,1,232,"f42887_e_296",1,1.562530623,1,10,1,4,1
"1433",111,1,233,"f42887_e_019",1,2.262056738,1,9,1,3,1
"1434",111,1,234,"f42887_e_226",1,3.061608114,1,10,2,4,1
"1435",111,1,235,"f42887_e_059",1,1.828854006,1,10,2,4,1
"1436",111,1,236,"f42887_e_203",1,1.928757426,1,9,2,3,1
"1437",111,1,237,"f42887_e_025",1,1.762019488,1,10,1,4,1
"1438",111,1,238,"f42887_e_163",1,1.462035237,1,9,1,3,1
"1439",111,1,239,"f42887_e_051",1,1.195683378,1,9,1,3,1
"1440",111,1,240,"f42887_e_158",1,1.728526844,1,9,2,3,1
"1441",111,1,241,"f42887_e_102",1,1.362083637,1,10,2,4,1
"1442",111,1,242,"f42887_e_199",1,1.691234991,1,10,2,4,1
"1443",111,1,243,"f42887_e_099",1,1.961782185,1,9,2,3,1
"1444",111,1,244,"f42887_e_210",1,1.128666907,1,9,2,3,1
"1445",111,1,245,"f42887_e_050",1,1.827590503,0,9,1,4,1
"1446",111,1,246,"f42887_e_157",1,1.760957157,1,9,2,3,1
"1447",111,1,247,"f42887_e_219",1,1.728143791,1,9,1,3,1
"1448",111,1,248,"f42887_e_107",1,1.628129274,1,10,1,4,1
"1449",111,1,249,"f42887_e_067",1,1.594866042,1,9,1,3,1
"1450",111,1,250,"f42887_e_236",1,1.194548623,1,9,1,3,1
"1451",111,1,251,"f42887_e_133",1,2.027619838,1,10,2,4,1
"1452",111,1,252,"f42887_e_175",1,2.959175073,1,10,1,4,1
"1453",111,1,253,"f42887_e_273",1,2.360751855,1,10,2,4,1
"1454",111,1,254,"f42887_e_180",1,2.460341003,1,10,2,4,1
"1455",111,1,255,"f42887_e_280",1,2.660357961,1,10,1,4,1
"1456",111,1,256,"f42887_e_013",1,1.361066017,1,9,2,3,1
"1457",111,1,257,"f42887_e_016",1,0.960941578,1,9,1,3,1
"1458",111,1,258,"f42887_e_260",1,1.927045686,1,9,1,3,1
"1459",111,1,259,"f42887_e_204",1,1.960400973,1,9,2,3,1
"1460",111,1,260,"f42887_e_167",1,2.259566662,1,9,2,3,1
"1461",111,1,261,"f42887_e_185",1,4.162754684,1,9,2,3,1
"1462",111,1,262,"f42887_e_076",1,2.793018883,1,9,1,3,1
"1463",111,1,263,"f42887_e_238",1,2.159965706,1,9,2,3,1
"1464",111,1,264,"f42887_e_283",1,2.893070065,1,10,2,4,1
"1465",111,1,265,"f42887_e_069",1,1.559667155,1,9,1,3,1
"1466",111,1,266,"f42887_e_262",1,1.193285647,1,9,1,3,1
"1467",111,1,267,"f42887_e_183",1,1.593434796,1,9,1,3,1
"1468",111,1,268,"f42887_e_272",1,1.826421166,1,10,2,4,1
"1469",111,1,269,"f42887_e_270",1,2.558964244,1,9,2,3,1
"1470",111,1,270,"f42887_e_293",1,1.959564589,1,10,1,4,1
"1471",111,1,271,"f42887_e_177",1,1.726469201,1,9,2,3,1
"1472",111,1,272,"f42887_e_006",1,1.693027504,1,9,1,3,1
"1473",111,1,273,"f42887_e_209",1,3.092186459,1,10,1,4,1
"1474",111,1,274,"f42887_e_082",1,1.49289911,1,9,1,3,1
"1475",111,1,275,"f42887_e_139",1,1.859343231,1,10,1,4,1
"1476",111,1,276,"f42887_e_197",1,1.326408566,1,9,1,3,1
"1477",111,1,277,"f42887_e_255",1,1.092790566,1,9,2,3,1
"1478",111,1,278,"f42887_e_148",1,1.159510253,1,10,2,4,1
"1479",111,1,279,"f42887_e_091",1,1.759145396,1,10,1,4,1
"1480",111,1,280,"f42887_e_274",1,1.459266032,1,10,1,4,1
"1481",111,1,281,"f42887_e_150",1,2.325258691,1,9,2,3,1
"1482",111,1,282,"f42887_e_254",1,1.55892869,1,10,1,4,1
"1483",111,1,283,"f42887_e_090",1,4.990623068,1,9,2,3,1
"1484",111,1,284,"f42887_e_096",1,3.291274462,1,9,2,3,1
"1485",111,1,285,"f42887_e_053",1,1.55883512,1,10,1,4,1
"1486",111,1,286,"f42887_e_009",1,1.391584103,1,9,1,3,1
"1487",111,1,287,"f42887_e_029",1,1.525000482,1,10,1,4,1
"1488",111,1,288,"f42887_e_130",1,1.92449281,1,9,1,3,1
"1489",111,1,289,"f42887_e_186",1,1.591796827,1,9,1,3,1
"1490",111,1,290,"f42887_e_039",1,1.591314658,1,9,1,3,1
"1491",111,1,291,"f42887_e_211",1,1.758266846,1,10,1,4,1
"1492",111,1,292,"f42887_e_145",1,2.691075839,1,10,1,4,1
"1493",111,1,293,"f42887_e_068",1,1.291618127,1,9,1,3,1
"1494",111,1,294,"f42887_e_129",1,1.824798907,1,10,1,4,1
"1495",111,1,295,"f42887_e_178",1,1.524816329,1,9,2,3,1
"1496",111,1,296,"f42887_e_275",1,1.391393518,1,9,1,3,1
"1497",111,1,297,"f42887_e_078",1,1.291427087,1,9,1,3,1
"1498",111,1,298,"f42887_e_048",1,2.190799609,1,10,2,4,1
"1499",111,1,299,"f42887_e_147",1,3.05692723,1,10,1,4,1
"1500",111,1,300,"f42887_e_172",1,1.591059806,1,9,1,3,1
"1501",111,2,301,"f42887_e_054",1,1.498372947,1,10,2,4,1
"1502",111,2,302,"f42887_e_006",1,1.356884761,1,9,2,3,1
"1503",111,2,303,"f42887_e_248",1,1.79129447,1,10,2,4,1
"1504",111,2,304,"f42887_e_070",1,1.207688574,1,9,1,3,1
"1505",111,2,305,"f42887_e_041",1,2.556843699,1,10,1,4,1
"1506",111,2,306,"f42887_e_039",1,1.557158778,1,10,1,4,1
"1507",111,2,307,"f42887_e_078",1,1.423936074,1,9,1,3,1
"1508",111,2,308,"f42887_e_068",1,1.590404454,1,9,2,3,1
"1509",111,2,309,"f42887_e_085",1,1.707152129,1,9,1,3,1
"1510",111,2,310,"f42887_e_128",1,2.306815775,1,9,2,3,1
"1511",111,2,311,"f42887_e_283",1,4.56143501,1,9,2,3,1
"1512",111,2,312,"f42887_e_082",1,1.840134684,1,9,2,3,1
"1513",111,2,313,"f42887_e_096",1,2.293977457,1,9,2,3,1
"1514",111,2,314,"f42887_e_268",1,3.572386205,1,10,2,4,1
"1515",111,2,315,"f42887_e_201",1,1.773070706,1,10,1,4,1
"1516",111,2,316,"f42887_e_202",1,1.439434617,1,9,2,3,1
"1517",111,2,317,"f42887_e_097",1,0.906941919,1,9,1,3,1
"1518",111,2,318,"f42887_e_095",1,2.106165027,1,10,1,4,1
"1519",111,2,319,"f42887_e_173",1,1.939628859,1,9,1,3,1
"1520",111,2,320,"f42887_e_166",1,1.439228762,1,9,2,3,1
"1521",111,2,321,"f42887_e_003",1,3.105170133,0,9,1,4,1
"1522",111,2,322,"f42887_e_080",1,1.572416158,1,9,2,3,1
"1523",111,2,323,"f42887_e_210",1,4.036873773,1,9,1,3,1
"1524",111,2,324,"f42887_e_239",1,1.405684724,1,9,2,3,1
"1525",111,2,325,"f42887_e_196",1,1.605741867,1,10,1,4,1
"1526",111,2,326,"f42887_e_029",1,0.939286199,1,10,1,4,1
"1527",111,2,327,"f42887_e_149",1,1.439294596,1,10,2,4,1
"1528",111,2,328,"f42887_e_171",1,1.505889495,1,9,2,3,1
"1529",111,2,329,"f42887_e_104",1,1.572038502,1,9,1,3,1
"1530",111,2,330,"f42887_e_214",1,1.270558898,1,10,2,4,1
"1531",111,2,331,"f42887_e_267",1,1.572122671,1,9,1,3,1
"1532",111,2,332,"f42887_e_135",1,1.305555482,1,10,2,4,1
"1533",111,2,333,"f42887_e_023",1,2.304787744,1,10,1,4,1
"1534",111,2,334,"f42887_e_204",1,1.371661888,1,10,1,4,1
"1535",111,2,335,"f42887_e_012",1,1.704780323,1,9,2,3,1
"1536",111,2,336,"f42887_e_098",1,0.97174244,1,9,1,3,1
"1537",111,2,337,"f42887_e_065",1,2.271271811,1,9,1,3,1
"1538",111,2,338,"f42887_e_025",1,1.438145059,1,10,2,4,1
"1539",111,2,339,"f42887_e_225",1,3.170679047,1,10,1,4,1
"1540",111,2,340,"f42887_e_044",1,2.80377993,1,10,2,4,1
"1541",111,2,341,"f42887_e_212",1,2.404180021,1,10,1,4,1
"1542",111,2,342,"f42887_e_094",1,3.07057176,1,10,1,4,1
"1543",111,2,343,"f42887_e_021",1,1.496699207,1,9,2,3,1
"1544",111,2,344,"f42887_e_216",1,1.304549313,1,10,1,4,1
"1545",111,2,345,"f42887_e_016",1,1.904007441,1,9,2,3,1
"1546",111,2,346,"f42887_e_034",1,1.071045097,1,9,2,3,1
"1547",111,2,347,"f42887_e_105",1,3.729585737,1,10,1,4,1
"1548",111,2,348,"f42887_e_185",1,1.604313151,1,9,1,3,1
"1549",111,2,349,"f42887_e_013",1,1.364077864,1,10,2,4,1
"1550",111,2,350,"f42887_e_100",1,1.837598394,1,10,2,4,1
"1551",111,2,351,"f42887_e_256",1,1.464028114,1,9,1,3,1
"1552",111,2,352,"f42887_e_030",1,1.397169815,1,10,1,4,1
"1553",111,2,353,"f42887_e_236",1,1.897181562,1,9,1,3,1
"1554",111,2,354,"f42887_e_247",1,1.607358543,1,10,1,4,1
"1555",111,2,355,"f42887_e_187",1,1.330475341,1,10,2,4,1
"1556",111,2,356,"f42887_e_175",1,1.296739835,1,10,2,4,1
"1557",111,2,357,"f42887_e_101",1,1.196786539,1,10,2,4,1
"1558",111,2,358,"f42887_e_089",1,1.563505105,1,10,1,4,1
"1559",111,2,359,"f42887_e_291",1,1.063314792,1,10,2,4,1
"1560",111,2,360,"f42887_e_242",1,1.2303596,1,10,2,4,1
"1561",111,2,361,"f42887_e_107",1,1.929467108,1,9,2,3,1
"1562",111,2,362,"f42887_e_162",1,1.129958939,1,9,1,3,1
"1563",111,2,363,"f42887_e_213",1,2.529172096,1,10,1,4,1
"1564",111,2,364,"f42887_e_074",1,5.461136394,1,10,1,4,1
"1565",111,2,365,"f42887_e_280",1,1.562576901,1,9,2,3,1
"1566",111,2,366,"f42887_e_026",1,1.395505672,1,10,1,4,1
"1567",111,2,367,"f42887_e_059",1,1.029442737,1,10,2,4,1
"1568",111,2,368,"f42887_e_125",1,1.462998648,1,9,1,3,1
"1569",111,2,369,"f42887_e_259",1,2.029074873,1,9,1,3,1
"1570",111,2,370,"f42887_e_181",1,3.761756484,1,9,2,3,1
"1571",111,2,371,"f42887_e_174",1,1.42936069,1,9,2,3,1
"1572",111,2,372,"f42887_e_263",1,2.129002522,1,10,1,4,1
"1573",111,2,373,"f42887_e_050",1,3.794374179,0,10,1,3,1
"1574",111,2,374,"f42887_e_154",1,1.528603742,1,10,2,4,1
"1575",111,2,375,"f42887_e_220",1,2.761537398,1,9,2,3,1
"1576",111,2,376,"f42887_e_081",1,8.625558035,1,9,2,3,1
"1577",111,2,377,"f42887_e_222",1,4.02737306,1,9,2,3,1
"1578",111,2,378,"f42887_e_243",1,1.362050228,1,10,2,4,1
"1579",111,2,379,"f42887_e_234",1,1.561718866,1,10,1,4,1
"1580",111,2,380,"f42887_e_027",1,1.328931916,1,10,1,4,1
"1581",111,2,381,"f42887_e_151",1,1.194959469,1,9,2,3,1
"1582",111,2,382,"f42887_e_160",1,1.062046846,1,10,1,4,1
"1583",111,2,383,"f42887_e_240",1,0.994763061,1,10,2,4,1
"1584",111,2,384,"f42887_e_249",1,2.727338117,1,10,1,4,1
"1585",111,2,385,"f42887_e_226",1,1.128418506,1,9,2,3,1
"1586",111,2,386,"f42887_e_073",1,1.195087818,1,10,1,4,1
"1587",111,2,387,"f42887_e_099",1,1.461559286,1,10,1,4,1
"1588",111,2,388,"f42887_e_231",1,0.895112474,1,10,1,4,1
"1589",111,2,389,"f42887_e_141",1,0.594772083,1,9,1,3,1
"1590",111,2,390,"f42887_e_005",1,0.728253661,1,9,1,3,1
"1591",111,2,391,"f42887_e_086",1,0.928006682,1,10,1,4,1
"1592",111,2,392,"f42887_e_000",1,1.761262659,1,9,2,3,1
"1593",111,2,393,"f42887_e_129",1,1.061143924,1,10,1,4,1
"1594",111,2,394,"f42887_e_140",1,1.593743039,1,10,2,4,1
"1595",111,2,395,"f42887_e_111",1,0.960984066,1,10,2,4,1
"1596",111,2,396,"f42887_e_275",1,0.961289632,0,9,2,4,1
"1597",111,2,397,"f42887_e_046",1,0.994353421,1,10,1,4,1
"1598",111,2,398,"f42887_e_165",1,0.66099224,1,9,1,3,1
"1599",111,2,399,"f42887_e_072",1,0.794025119,0,10,2,3,1
"1600",111,2,400,"f42887_e_106",1,0.860752423,1,9,1,3,1
"1601",111,2,401,"f42887_e_120",1,1.864493017,1,10,1,4,1
"1602",111,2,402,"f42887_e_232",1,1.226125517,1,9,1,3,1
"1603",111,2,403,"f42887_e_145",1,2.058946313,1,10,2,4,1
"1604",111,2,404,"f42887_e_284",1,0.927168237,1,10,2,4,1
"1605",111,2,405,"f42887_e_194",1,0.793421405,1,10,2,4,1
"1606",111,2,406,"f42887_e_138",1,0.893729089,1,9,2,3,1
"1607",111,2,407,"f42887_e_197",1,0.69353806,1,10,2,4,1
"1608",111,2,408,"f42887_e_042",1,0.993432439,1,10,1,4,1
"1609",111,2,409,"f42887_e_048",1,0.926519301,1,9,1,3,1
"1610",111,2,410,"f42887_e_251",1,1.192761579,0,10,2,3,1
"1611",111,2,411,"f42887_e_116",1,1.192880477,1,9,1,3,1
"1612",111,2,412,"f42887_e_146",1,0.759454671,1,10,1,4,1
"1613",111,2,413,"f42887_e_286",1,1.459574436,1,10,1,4,1
"1614",111,2,414,"f42887_e_069",1,0.826146866,1,9,2,3,1
"1615",111,2,415,"f42887_e_258",1,0.75945196,1,10,1,4,1
"1616",111,2,416,"f42887_e_273",1,0.792797,1,10,2,4,1
"1617",111,2,417,"f42887_e_188",1,1.025766113,1,9,1,3,1
"1618",111,2,418,"f42887_e_114",1,0.959430134,1,9,2,3,1
"1619",111,2,419,"f42887_e_060",1,0.792589881,1,9,1,3,1
"1620",111,2,420,"f42887_e_229",1,0.759208563,1,9,1,3,1
"1621",111,2,421,"f42887_e_244",1,0.792199966,1,10,1,4,1
"1622",111,2,422,"f42887_e_007",1,0.692701262,1,10,1,4,1
"1623",111,2,423,"f42887_e_292",1,1.092184679,1,9,2,3,1
"1624",111,2,424,"f42887_e_272",1,1.025639848,1,9,2,3,1
"1625",111,2,425,"f42887_e_152",1,0.792049287,1,10,1,4,1
"1626",111,2,426,"f42887_e_136",1,1.158725827,1,9,2,3,1
"1627",111,2,427,"f42887_e_186",1,1.325020602,1,10,2,4,1
"1628",111,2,428,"f42887_e_036",1,1.025297267,1,10,2,4,1
"1629",111,2,429,"f42887_e_062",1,1.007810667,1,9,2,3,1
"1630",111,2,430,"f42887_e_037",1,0.891492109,1,10,1,4,1
"1631",111,2,431,"f42887_e_131",1,2.25747682,1,9,1,3,1
"1632",111,2,432,"f42887_e_180",1,1.257939785,1,9,2,3,1
"1633",111,2,433,"f42887_e_118",1,0.890941237,1,9,2,3,1
"1634",111,2,434,"f42887_e_205",1,0.891367816,1,10,1,4,1
"1635",111,2,435,"f42887_e_147",1,0.924599789,1,10,2,4,1
"1636",111,2,436,"f42887_e_002",1,0.858093179,1,9,1,3,1
"1637",111,2,437,"f42887_e_177",1,0.791163658,1,9,2,3,1
"1638",111,2,438,"f42887_e_051",1,0.926313446,1,9,1,3,1
"1639",111,2,439,"f42887_e_169",1,0.838205347,1,10,2,4,1
"1640",111,2,440,"f42887_e_228",1,0.757900753,1,9,2,3,1
"1641",111,2,441,"f42887_e_020",1,0.890800399,1,10,1,4,1
"1642",111,2,442,"f42887_e_108",1,0.724365757,1,9,2,3,1
"1643",111,2,443,"f42887_e_112",1,0.774137709,1,9,1,3,1
"1644",111,2,444,"f42887_e_134",1,1.107409931,1,10,2,4,1
"1645",111,2,445,"f42887_e_253",1,1.306954852,1,9,2,3,1
"1646",111,2,446,"f42887_e_052",1,1.640284051,1,9,2,3,1
"1647",111,2,447,"f42887_e_004",1,1.440123143,1,9,1,3,1
"1648",111,2,448,"f42887_e_285",1,0.90737266,1,9,1,3,1
"1649",111,2,449,"f42887_e_142",1,0.973772099,1,10,2,4,1
"1650",111,2,450,"f42887_e_190",1,1.273789172,1,10,1,4,1
"1651",111,2,451,"f42887_e_156",1,1.489801685,1,10,2,4,1
"1652",111,2,452,"f42887_e_079",1,0.773186497,1,10,2,4,1
"1653",111,2,453,"f42887_e_261",1,0.723644172,1,9,2,3,1
"1654",111,2,454,"f42887_e_262",1,2.139648389,1,10,2,4,1
"1655",111,2,455,"f42887_e_084",1,1.929950229,1,9,2,3,1
"1656",111,2,456,"f42887_e_045",1,1.339842094,1,9,2,3,1
"1657",111,2,457,"f42887_e_218",1,1.272850513,1,10,1,4,1
"1658",111,2,458,"f42887_e_049",1,1.672909694,1,10,2,4,1
"1659",111,2,459,"f42887_e_022",1,1.37282361,1,10,1,4,1
"1660",111,2,460,"f42887_e_057",1,1.605212445,1,9,2,3,1
"1661",111,2,461,"f42887_e_288",1,1.172428289,1,10,1,4,1
"1662",111,2,462,"f42887_e_254",1,1.805918553,1,10,1,4,1
"1663",111,2,463,"f42887_e_199",1,2.471875856,1,10,2,4,1
"1664",111,2,464,"f42887_e_137",1,1.172780888,1,9,2,3,1
"1665",111,2,465,"f42887_e_017",1,1.305742071,1,9,1,3,1
"1666",111,2,466,"f42887_e_130",1,0.839426621,1,9,1,3,1
"1667",111,2,467,"f42887_e_008",1,0.971801797,1,9,2,3,1
"1668",111,2,468,"f42887_e_139",1,0.605930251,1,9,2,3,1
"1669",111,2,469,"f42887_e_178",1,0.80542086,1,9,2,3,1
"1670",111,2,470,"f42887_e_276",1,0.938914822,1,9,1,3,1
"1671",111,2,471,"f42887_e_264",1,0.9715144,1,10,1,4,1
"1672",111,2,472,"f42887_e_250",1,0.694614545,0,10,1,3,1
"1673",111,2,473,"f42887_e_055",1,0.471479424,0,10,1,3,1
"1674",111,2,474,"f42887_e_119",1,0.105881317,0,10,1,3,1
"1675",111,2,475,"f42887_e_203",1,0.171513817,0,10,2,3,1
"1676",111,2,476,"f42887_e_157",1,0.505196202,1,10,1,4,1
"1677",111,2,477,"f42887_e_018",1,0.638417428,1,10,1,4,1
"1678",111,2,478,"f42887_e_088",1,0.838362155,1,9,2,3,1
"1679",111,2,479,"f42887_e_115",1,0.638180983,1,9,2,3,1
"1680",111,2,480,"f42887_e_295",1,1.704724842,1,10,2,4,1
"1681",111,2,481,"f42887_e_223",1,1.437698731,1,9,1,3,1
"1682",111,2,482,"f42887_e_163",1,1.304644959,1,10,2,4,1
"1683",111,2,483,"f42887_e_150",1,3.137043093,1,9,2,3,1
"1684",111,2,484,"f42887_e_233",1,1.337757872,1,10,1,4,1
"1685",111,2,485,"f42887_e_090",1,2.603659251,1,9,2,3,1
"1686",111,2,486,"f42887_e_103",1,1.904049632,1,10,1,4,1
"1687",111,2,487,"f42887_e_183",1,0.87086523,1,9,1,3,1
"1688",111,2,488,"f42887_e_266",1,0.864034057,1,9,2,3,1
"1689",111,2,489,"f42887_e_282",1,0.92690769,1,9,1,3,1
"1690",111,2,490,"f42887_e_067",1,0.759696898,1,10,2,4,1
"1691",111,2,491,"f42887_e_056",1,1.197416072,1,10,1,4,1
"1692",111,2,492,"f42887_e_014",1,1.170700587,1,9,2,3,1
"1693",111,2,493,"f42887_e_066",1,0.863693534,1,9,1,3,1
"1694",111,2,494,"f42887_e_109",1,0.830823558,1,9,2,3,1
"1695",111,2,495,"f42887_e_168",1,0.797089942,1,10,2,4,1
"1696",111,2,496,"f42887_e_170",1,0.730430807,1,10,1,4,1
"1697",111,2,497,"f42887_e_043",1,0.597203949,1,10,1,4,1
"1698",111,2,498,"f42887_e_093",1,0.763811113,1,9,2,3,1
"1699",111,2,499,"f42887_e_215",1,0.630117465,1,10,1,4,1
"1700",111,2,500,"f42887_e_298",1,1.09667273,1,9,1,3,1
"1701",111,2,501,"f42887_e_110",1,1.264757477,1,10,1,4,1
"1702",111,2,502,"f42887_e_127",1,1.129043595,1,9,2,3,1
"1703",111,2,503,"f42887_e_209",1,1.229101951,1,10,2,4,1
"1704",111,2,504,"f42887_e_102",1,1.162332417,1,10,2,4,1
"1705",111,2,505,"f42887_e_299",1,0.99610189,1,9,2,3,1
"1706",111,2,506,"f42887_e_278",1,1.429562831,1,10,1,4,1
"1707",111,2,507,"f42887_e_287",1,1.02852,1,9,2,3,1
"1708",111,2,508,"f42887_e_289",1,1.462402814,1,10,2,4,1
"1709",111,2,509,"f42887_e_217",1,1.528883282,1,10,2,4,1
"1710",111,2,510,"f42887_e_001",1,0.895886194,1,10,2,4,1
"1711",111,2,511,"f42887_e_241",1,0.962825865,1,9,1,3,1
"1712",111,2,512,"f42887_e_011",1,0.696057576,1,10,2,4,1
"1713",111,2,513,"f42887_e_270",1,0.729363638,1,9,1,3,1
"1714",111,2,514,"f42887_e_293",1,0.662650112,1,9,1,3,1
"1715",111,2,515,"f42887_e_024",1,0.829128284,1,9,2,3,1
"1716",111,2,516,"f42887_e_265",1,0.729321725,1,9,2,3,1
"1717",111,2,517,"f42887_e_219",1,0.629018233,1,9,2,3,1
"1718",111,2,518,"f42887_e_077",1,0.828864824,1,10,1,4,1
"1719",111,2,519,"f42887_e_193",1,0.75813571,1,10,2,4,1
"1720",111,2,520,"f42887_e_230",1,0.79538412,1,9,1,3,1
"1721",111,2,521,"f42887_e_047",1,0.795418906,1,10,1,4,1
"1722",111,2,522,"f42887_e_200",1,0.695581598,1,9,1,3,1
"1723",111,2,523,"f42887_e_133",1,0.661929753,1,9,2,3,1
"1724",111,2,524,"f42887_e_290",1,0.828638672,1,10,2,4,1
"1725",111,2,525,"f42887_e_167",1,0.628513349,1,9,2,3,1
"1726",111,2,526,"f42887_e_076",1,0.661810347,1,10,2,4,1
"1727",111,2,527,"f42887_e_207",1,0.76134745,1,9,1,3,1
"1728",111,2,528,"f42887_e_221",1,0.828128363,1,10,2,4,1
"1729",111,2,529,"f42887_e_238",1,1.061086936,1,9,1,3,1
"1730",111,2,530,"f42887_e_124",1,0.728382453,1,10,2,4,1
"1731",111,2,531,"f42887_e_158",1,0.794559299,1,9,2,3,1
"1732",111,2,532,"f42887_e_195",1,0.758591444,1,9,1,3,1
"1733",111,2,533,"f42887_e_071",1,0.727777544,1,10,2,4,1
"1734",111,2,534,"f42887_e_192",1,0.794018912,1,9,1,3,1
"1735",111,2,535,"f42887_e_091",1,0.660709885,1,9,2,3,1
"1736",111,2,536,"f42887_e_144",1,0.660152216,1,9,2,3,1
"1737",111,2,537,"f42887_e_296",1,0.661072947,1,10,2,4,1
"1738",111,2,538,"f42887_e_164",1,0.62732341,1,9,2,3,1
"1739",111,2,539,"f42887_e_227",1,0.694218691,1,9,1,3,1
"1740",111,2,540,"f42887_e_061",1,0.727309243,1,9,1,3,1
"1741",111,2,541,"f42887_e_123",1,0.727711022,1,10,2,4,1
"1742",111,2,542,"f42887_e_009",1,0.6272157,1,9,2,3,1
"1743",111,2,543,"f42887_e_063",1,0.960486814,1,10,1,4,1
"1744",111,2,544,"f42887_e_028",1,0.593535776,1,9,2,3,1
"1745",111,2,545,"f42887_e_087",1,1.326947724,1,10,1,4,1
"1746",111,2,546,"f42887_e_032",1,0.726962659,1,9,2,3,1
"1747",111,2,547,"f42887_e_172",1,0.627363899,1,9,2,3,1
"1748",111,2,548,"f42887_e_161",1,0.693594154,1,9,1,3,1
"1749",111,2,549,"f42887_e_189",1,0.660133438,1,9,2,3,1
"1750",111,2,550,"f42887_e_271",1,0.693245122,1,9,1,3,1
"1751",111,2,551,"f42887_e_269",1,0.62491574,1,9,2,3,1
"1752",111,2,552,"f42887_e_040",1,0.626405789,1,9,2,3,1
"1753",111,2,553,"f42887_e_211",1,0.55967491,1,9,2,3,1
"1754",111,2,554,"f42887_e_191",1,0.692798806,1,9,1,3,1
"1755",111,2,555,"f42887_e_015",1,0.826217136,1,9,1,3,1
"1756",111,2,556,"f42887_e_237",1,0.759139414,1,10,1,4,1
"1757",111,2,557,"f42887_e_182",1,0.892677142,1,9,2,3,1
"1758",111,2,558,"f42887_e_257",1,0.69256268,1,9,1,3,1
"1759",111,2,559,"f42887_e_031",1,0.659382913,1,9,1,3,1
"1760",111,2,560,"f42887_e_075",1,0.692565248,1,9,1,3,1
"1761",111,2,561,"f42887_e_198",1,0.759477888,1,10,2,4,1
"1762",111,2,562,"f42887_e_297",1,0.791830905,1,10,2,4,1
"1763",111,2,563,"f42887_e_235",1,0.894824532,1,10,1,4,1
"1764",111,2,564,"f42887_e_279",1,0.725478328,1,9,2,3,1
"1765",111,2,565,"f42887_e_179",1,0.792061347,1,10,2,4,1
"1766",111,2,566,"f42887_e_153",1,0.924995222,1,10,2,4,1
"1767",111,2,567,"f42887_e_184",1,0.825358973,1,10,1,4,1
"1768",111,2,568,"f42887_e_033",1,0.725296419,1,10,1,4,1
"1769",111,2,569,"f42887_e_208",1,0.69549414,1,10,1,4,1
"1770",111,2,570,"f42887_e_281",1,0.691354045,1,9,2,3,1
"1771",111,2,571,"f42887_e_260",1,0.958051647,1,10,2,4,1
"1772",111,2,572,"f42887_e_058",1,0.891441222,1,10,1,4,1
"1773",111,2,573,"f42887_e_121",1,1.258245013,1,10,1,4,1
"1774",111,2,574,"f42887_e_143",1,0.924723521,0,10,2,3,1
"1775",111,2,575,"f42887_e_038",1,0.391873434,1,10,1,4,1
"1776",111,2,576,"f42887_e_122",1,0.001425956,0,9,1,4,1
"1777",111,2,577,"f42887_e_224",1,0.401696981,1,10,2,4,1
"1778",111,2,578,"f42887_e_053",1,0.108233477,0,10,2,3,1
"1779",111,2,579,"f42887_e_132",1,0.34144672,1,10,1,4,1
"1780",111,2,580,"f42887_e_176",1,0.141210432,0,9,2,4,1
"1781",111,2,581,"f42887_e_126",1,0.341456111,1,10,1,4,1
"1782",111,2,582,"f42887_e_035",1,0.624188944,1,10,1,4,1
"1783",111,2,583,"f42887_e_092",1,0.72449932,1,9,1,3,1
"1784",111,2,584,"f42887_e_113",1,0.674238236,1,9,1,3,1
"1785",111,2,585,"f42887_e_010",1,0.657596156,1,10,1,4,1
"1786",111,2,586,"f42887_e_294",1,1.473597922,1,9,2,3,1
"1787",111,2,587,"f42887_e_246",1,0.756981835,1,10,2,4,1
"1788",111,2,588,"f42887_e_277",1,0.761956987,1,10,2,4,1
"1789",111,2,589,"f42887_e_019",1,0.724023015,1,10,2,4,1
"1790",111,2,590,"f42887_e_255",1,1.006686329,1,9,2,3,1
"1791",111,2,591,"f42887_e_064",1,0.723695701,1,10,2,4,1
"1792",111,2,592,"f42887_e_155",1,0.692218336,1,10,1,4,1
"1793",111,2,593,"f42887_e_274",1,0.740503103,1,9,2,3,1
"1794",111,2,594,"f42887_e_245",1,0.723612811,1,10,2,4,1
"1795",111,2,595,"f42887_e_148",1,0.873800104,1,10,1,4,1
"1796",111,2,596,"f42887_e_083",1,0.806640111,1,9,1,3,1
"1797",111,2,597,"f42887_e_159",1,0.673175996,1,9,2,3,1
