Subject,Block,Part,Trial,Stim,cong1incong2,RT,Accuracy,position,Eye,response
1,1,1,1,9-1-5=2,2,2.243816786,0,10,2,3
1,1,1,2,9-4-4=2,2,5.80292463,1,10,1,4
1,1,1,3,9-4-5=0,1,1.674178312,1,10,2,4
1,1,1,4,9-6-2=0,2,1.912675012,1,9,2,3
1,1,1,5,7-4-2=0,2,1.641184816,1,10,2,4
1,1,1,6,9-1-2=6,1,2.002147579,1,10,1,4
1,1,1,7,7-1-2=4,1,3.074256808,1,9,1,3
1,1,1,8,7-3-4=0,1,1.364439555,1,9,2,3
1,1,1,9,7-3-3=1,1,1.272463384,1,10,2,4
1,1,1,10,8-3-5=1,2,2.919764275,1,10,1,4
1,1,1,11,6-2-4=1,2,2.552481671,1,10,2,4
1,1,1,12,8-2-2=5,2,2.404605199,1,9,2,3
1,1,1,13,9-2-3=5,2,1.535381897,1,9,1,3
1,1,1,14,6-4-2=0,1,1.18576046,1,10,2,4
1,1,1,15,9-5-1=2,2,1.747265949,1,9,1,3
1,1,1,16,6-1-1=3,2,1.227892987,1,9,2,3
1,1,1,17,7-1-1=4,2,1.363635612,1,10,2,4
1,1,1,18,9-5-3=1,1,1.448337783,1,9,1,3
1,1,1,19,8-5-3=1,2,1.647400647,1,9,1,3
1,1,1,20,9-3-5=0,2,1.586025356,1,10,1,4
1,1,1,21,8-1-4=3,1,1.584964862,1,9,2,3
1,1,1,22,9-3-4=1,2,1.952634773,1,10,2,4
1,1,1,23,8-1-5=2,1,1.344859501,1,10,2,4
1,1,1,24,7-2-1=4,1,2.23928406,1,9,1,3
1,1,1,25,8-3-3=1,2,1.268795843,1,9,2,3
1,1,1,26,8-1-2=6,2,1.024862357,1,10,2,4
1,1,1,27,8-5-2=1,1,1.197468003,1,9,2,3
1,1,1,28,7-2-4=1,1,1.890983338,1,10,2,4
1,1,1,29,7-2-2=4,2,2.125797976,1,9,1,3
1,1,1,30,5-2-3=1,2,1.230685328,1,9,1,3
1,1,1,31,9-1-6=3,2,1.135265351,1,9,1,3
1,1,1,32,9-1-3=4,2,1.160075118,1,9,1,3
1,1,1,33,9-2-2=4,2,1.343230864,1,9,2,3
1,1,1,34,7-2-5=1,2,2.151101761,1,10,2,4
1,1,1,35,9-3-2=4,1,1.366458809,1,9,2,3
1,1,1,36,9-2-6=0,2,1.17828099,1,9,1,3
1,1,1,37,9-3-1=5,1,1.448071803,1,9,2,3
1,1,1,38,7-5-2=1,2,1.246836782,1,9,1,3
1,1,1,39,8-2-5=1,1,1.290451781,1,9,1,3
1,1,1,40,6-1-2=3,1,1.528203815,1,9,1,3
1,1,1,41,5-1-1=2,2,1.309161995,1,9,1,3
1,1,1,42,9-2-1=6,1,1.33663975,1,9,2,3
1,1,1,43,8-6-2=0,1,1.30625212,1,9,2,3
1,1,1,44,9-3-6=0,1,1.447059087,1,10,1,4
1,1,1,45,9-2-7=0,1,1.252392457,1,10,1,4
1,1,1,46,8-1-1=6,1,1.146651349,1,9,2,3
1,1,1,47,8-2-6=1,2,1.603239965,1,10,1,4
1,1,1,48,8-3-4=1,1,1.970518908,1,10,2,4
1,1,1,49,8-2-1=5,1,1.619260366,1,10,1,4
1,1,1,50,6-2-3=1,1,1.383827997,1,10,2,4
1,1,1,51,7-1-4=2,1,1.839155476,1,10,2,4
1,1,1,52,8-1-3=4,1,1.26793282,1,9,2,3
1,2,1,1,9-1-5=2,2,1.144243655,1,9,2,3
1,2,1,2,9-4-4=2,2,2.146277657,1,10,1,4
1,2,1,3,9-4-5=0,1,1.509673774,1,9,1,3
1,2,1,4,9-6-2=0,2,1.61943001,1,10,2,4
1,2,1,5,7-4-2=0,2,1.294780163,1,9,2,3
1,2,1,6,9-1-2=6,1,1.361092483,1,10,2,4
1,2,1,7,7-1-2=4,1,1.56068403,1,9,1,3
1,2,1,8,7-3-4=0,1,1.197186682,1,10,2,4
1,2,1,9,7-3-3=1,1,1.365408645,1,10,2,4
1,2,1,10,8-3-5=1,2,1.032634867,1,10,2,4
1,2,1,11,6-2-4=1,2,1.377716892,1,9,1,3
1,2,1,12,8-2-2=5,2,2.623623065,1,10,1,4
1,2,1,13,9-2-3=5,2,1.338792957,1,9,2,3
1,2,1,14,6-4-2=0,1,1.271842512,1,9,2,3
1,2,1,15,9-5-1=2,2,2.993222147,1,10,1,4
1,2,1,16,6-1-1=3,2,1.451179583,1,10,2,4
1,2,1,17,7-1-1=4,2,1.288204206,1,10,2,4
1,2,1,18,9-5-3=1,1,1.139210064,1,10,2,4
1,2,1,19,8-5-3=1,2,1.279051435,1,9,1,3
1,2,1,20,9-3-5=0,2,1.255402408,1,9,2,3
1,2,1,21,8-1-4=3,1,1.754608088,1,10,1,4
1,2,1,22,9-3-4=1,2,1.226721305,1,10,2,4
1,2,1,23,8-1-5=2,1,1.716777172,1,10,2,4
1,2,1,24,7-2-1=4,1,1.313911858,1,10,2,4
1,2,1,25,8-3-3=1,2,1.018696031,1,10,2,4
1,2,1,26,8-1-2=6,2,1.229360276,1,10,2,4
1,2,1,27,8-5-2=1,1,1.516014488,1,9,1,3
1,2,1,28,7-2-4=1,1,1.48983527,1,9,2,3
1,2,1,29,7-2-2=4,2,1.915917023,1,10,1,4
1,2,1,30,5-2-3=1,2,1.315239483,1,10,1,4
1,2,1,31,9-1-6=3,2,1.183578406,1,10,2,4
1,2,1,32,9-1-3=4,2,1.141327399,1,10,1,4
1,2,1,33,9-2-2=4,2,1.64842264,1,10,2,4
1,2,1,34,7-2-5=1,2,1.090005865,1,9,2,3
1,2,1,35,9-3-2=4,1,1.892340837,1,10,2,4
1,2,1,36,9-2-6=0,2,1.148099974,1,10,1,4
1,2,1,37,9-3-1=5,1,1.359416692,1,9,2,3
1,2,1,38,7-5-2=1,2,1.372557823,0,9,2,4
1,2,1,39,8-2-5=1,1,1.368642877,1,9,2,3
1,2,1,40,6-1-2=3,1,1.069068195,1,9,1,3
1,2,1,41,5-1-1=2,2,1.439617475,1,10,2,4
1,2,1,42,9-2-1=6,1,1.296968963,1,9,2,3
1,2,1,43,8-6-2=0,1,1.533689861,1,9,1,3
1,2,1,44,9-3-6=0,1,1.422814894,1,10,1,4
1,2,1,45,9-2-7=0,1,1.309666514,1,9,1,3
1,2,1,46,8-1-1=6,1,1.531782931,1,10,1,4
1,2,1,47,8-2-6=1,2,1.208327467,1,9,2,3
1,2,1,48,8-3-4=1,1,2.33565496,1,10,1,4
1,2,1,49,8-2-1=5,1,1.177355991,1,9,2,3
1,2,1,50,6-2-3=1,1,1.805931906,1,10,2,4
1,2,1,51,7-1-4=2,1,1.160159294,1,10,1,4
1,2,1,52,8-1-3=4,1,1.266796324,1,10,1,4
1,3,2,1,9-3-5=0,2,2.142161029,1,10,2,4
1,3,2,2,9-4-4=2,2,1.867045841,1,10,1,4
1,3,2,3,8-2-6=1,2,1.780808329,1,9,2,3
1,3,2,4,7-1-2=4,1,1.616694033,1,9,1,3
1,3,2,5,7-5-2=1,2,1.609972119,1,9,1,3
1,3,2,6,7-3-4=0,1,1.341570806,1,9,2,3
1,3,2,7,9-5-3=1,1,1.814343584,1,10,2,4
1,3,2,8,9-1-3=4,2,2.117898025,1,9,2,3
1,3,2,9,8-6-2=0,1,1.754836609,1,10,2,4
1,3,2,10,7-2-4=1,1,1.686386257,1,9,2,3
1,3,2,11,8-1-5=2,1,1.771062221,1,10,1,4
1,3,2,12,9-4-5=0,1,1.596903021,1,10,2,4
1,3,2,13,9-3-2=4,1,1.712148964,1,9,1,3
1,3,2,14,6-2-3=1,1,1.510538584,1,9,2,3
1,3,2,15,7-1-4=2,1,1.52189836,1,9,2,3
1,3,2,16,9-2-7=0,1,1.605874993,1,10,2,4
1,3,2,17,9-6-2=0,2,1.534615598,1,9,2,3
1,3,2,18,8-2-2=5,2,1.696930902,1,9,1,3
1,3,2,19,8-3-3=1,2,1.831184726,1,9,2,3
1,3,2,20,9-1-2=6,1,1.367940499,1,9,2,3
1,3,2,21,8-1-1=6,1,1.857264746,1,10,1,4
1,3,2,22,8-1-2=6,2,1.334346921,1,9,2,3
1,3,2,23,5-2-3=1,2,1.688499605,1,9,2,3
1,3,2,24,9-3-4=1,2,1.807218931,1,10,2,4
1,3,2,25,7-1-1=4,2,1.77730781,1,9,2,3
1,3,2,26,9-3-6=0,1,1.640745916,1,10,2,4
1,3,2,27,7-3-3=1,1,1.372793382,1,9,2,3
1,3,2,28,7-2-2=4,2,1.431624115,1,9,1,3
1,3,2,29,8-5-3=1,2,1.570031146,1,9,2,3
1,3,2,30,8-2-5=1,1,1.608181103,1,9,1,3
1,3,2,31,9-1-5=2,2,2.030888552,1,10,2,4
1,3,2,32,9-5-1=2,2,1.329690497,1,9,1,3
1,3,2,33,6-2-4=1,2,1.42411132,1,9,2,3
1,3,2,34,9-1-6=3,2,1.661156928,1,9,1,3
1,3,2,35,6-4-2=0,1,1.443156168,1,10,1,4
1,3,2,36,9-2-2=4,2,1.522700722,1,9,1,3
1,3,2,37,6-1-2=3,1,2.002606008,1,9,1,3
1,3,2,38,8-1-3=4,1,1.738128287,1,9,2,3
1,3,2,39,8-2-1=5,1,1.940841857,1,10,1,4
1,3,2,40,5-1-1=2,2,1.729215357,1,10,2,4
1,3,2,41,7-4-2=0,2,1.696972672,1,9,2,3
1,3,2,42,6-1-1=3,2,1.762887066,1,9,1,3
1,3,2,43,7-2-5=1,2,1.683882047,1,9,2,3
1,3,2,44,8-5-2=1,1,1.524440646,1,9,2,3
1,3,2,45,8-3-5=1,2,1.686239513,1,9,1,3
1,3,2,46,9-3-1=5,1,1.47721743,1,10,2,4
1,3,2,47,8-3-4=1,1,1.22125414,1,9,1,3
1,3,2,48,9-2-3=5,2,1.602301151,1,9,2,3
1,3,2,49,9-2-1=6,1,1.568592235,1,10,2,4
1,3,2,50,9-2-6=0,2,1.529653726,1,9,1,3
1,3,2,51,8-1-4=3,1,1.402672503,1,9,1,3
1,3,2,52,7-2-1=4,1,1.843875464,1,10,1,4
1,4,2,1,9-3-5=0,2,1.814188793,1,10,1,4
1,4,2,2,9-4-4=2,2,1.583004417,1,9,2,3
1,4,2,3,8-2-6=1,2,1.448888435,1,9,1,3
1,4,2,4,7-1-2=4,1,1.274311309,1,9,2,3
1,4,2,5,7-5-2=1,2,1.794313367,1,9,2,3
1,4,2,6,7-3-4=0,1,1.838405688,1,10,1,4
1,4,2,7,9-5-3=1,1,1.66108906,1,9,1,3
1,4,2,8,9-1-3=4,2,1.254396851,1,9,1,3
1,4,2,9,8-6-2=0,1,1.331638648,1,10,1,4
1,4,2,10,7-2-4=1,1,1.655776611,1,10,2,4
1,4,2,11,8-1-5=2,1,1.19270611,1,10,1,4
1,4,2,12,9-4-5=0,1,1.785699424,1,10,1,4
1,4,2,13,9-3-2=4,1,1.41878236,1,9,1,3
1,4,2,14,6-2-3=1,1,1.897835744,1,10,1,4
1,4,2,15,7-1-4=2,1,1.690034043,1,10,2,4
1,4,2,16,9-2-7=0,1,1.398362394,1,9,1,3
1,4,2,17,9-6-2=0,2,1.476575475,1,9,2,3
1,4,2,18,8-2-2=5,2,1.394901862,1,9,1,3
1,4,2,19,8-3-3=1,2,1.852172059,1,10,2,4
1,4,2,20,9-1-2=6,1,1.486948553,1,10,2,4
1,4,2,21,8-1-1=6,1,1.477698717,1,10,2,4
1,4,2,22,8-1-2=6,2,1.66699725,1,9,2,3
1,4,2,23,5-2-3=1,2,1.493371679,1,10,1,4
1,4,2,24,9-3-4=1,2,1.585932869,1,9,1,3
1,4,2,25,7-1-1=4,2,1.573524405,1,9,2,3
1,4,2,26,9-3-6=0,1,1.348064207,1,9,2,3
1,4,2,27,7-3-3=1,1,1.727499086,1,9,2,3
1,4,2,28,7-2-2=4,2,1.676577623,1,10,1,4
1,4,2,29,8-5-3=1,2,1.54316367,1,9,2,3
1,4,2,30,8-2-5=1,1,1.736710587,1,9,2,3
1,4,2,31,9-1-5=2,2,1.459723197,1,9,1,3
1,4,2,32,9-5-1=2,2,1.341489033,1,10,2,4
1,4,2,33,6-2-4=1,2,1.851148892,1,10,2,4
1,4,2,34,9-1-6=3,2,1.541178394,1,9,2,3
1,4,2,35,6-4-2=0,1,1.589797634,1,9,2,3
1,4,2,36,9-2-2=4,2,1.344290952,1,10,2,4
1,4,2,37,6-1-2=3,1,1.469023648,1,10,2,4
1,4,2,38,8-1-3=4,1,2.019308709,1,10,2,4
1,4,2,39,8-2-1=5,1,1.56880652,1,9,1,3
1,4,2,40,5-1-1=2,2,1.27363396,1,10,1,4
1,4,2,41,7-4-2=0,2,2.406723126,1,10,1,4
1,4,2,42,6-1-1=3,2,2.062784767,1,10,2,4
1,4,2,43,7-2-5=1,2,1.764099684,1,9,1,3
1,4,2,44,8-5-2=1,1,1.765381013,1,9,2,3
1,4,2,45,8-3-5=1,2,1.787297795,1,10,1,4
1,4,2,46,9-3-1=5,1,2.532997889,1,9,1,3
1,4,2,47,8-3-4=1,1,1.763512106,1,9,1,3
1,4,2,48,9-2-3=5,2,1.470323299,1,9,2,3
1,4,2,49,9-2-1=6,1,1.397926286,1,9,2,3
1,4,2,50,9-2-6=0,2,1.587047632,1,9,2,3
1,4,2,51,8-1-4=3,1,1.461376152,1,9,2,3
1,4,2,52,7-2-1=4,1,1.570287299,0,10,1,3
2,1,1,1,9-2-7=0,1,1.451113739,1,10,1,4
2,1,1,2,9-2-2=4,2,1.528252609,1,9,2,3
2,1,1,3,7-5-2=1,2,1.638463877,1,9,1,3
2,1,1,4,9-3-1=5,1,1.640563651,1,9,2,3
2,1,1,5,9-2-6=0,2,1.267645743,1,10,2,4
2,1,1,6,8-5-3=1,2,1.248372695,1,10,2,4
2,1,1,7,8-1-2=6,2,1.398306456,1,10,1,4
2,1,1,8,5-1-1=2,2,1.492902558,1,9,2,3
2,1,1,9,7-4-2=0,2,1.386236263,1,9,1,3
2,1,1,10,8-3-4=1,1,1.266784448,1,10,2,4
2,1,1,11,9-3-2=4,1,1.891744186,1,9,1,3
2,1,1,12,6-2-4=1,2,1.637818479,1,9,1,3
2,1,1,13,7-2-4=1,1,1.894980904,1,10,1,4
2,1,1,14,9-3-6=0,1,1.687534385,1,10,2,4
2,1,1,15,6-1-2=3,1,1.204424514,1,10,2,4
2,1,1,16,5-2-3=1,2,1.155266991,1,10,1,4
2,1,1,17,8-1-1=6,1,1.11740117,1,9,2,3
2,1,1,18,9-1-6=3,2,1.275130559,1,9,1,3
2,1,1,19,9-3-5=0,2,1.118554806,1,9,1,3
2,1,1,20,8-5-2=1,1,1.402274832,1,10,1,4
2,1,1,21,9-5-1=2,2,1.491337087,1,9,1,3
2,1,1,22,7-1-4=2,1,1.095669764,1,10,2,4
2,1,1,23,8-1-4=3,1,1.946773252,1,10,1,4
2,1,1,24,7-1-1=4,2,1.472726011,1,9,2,3
2,1,1,25,8-2-2=5,2,1.267341285,1,10,1,4
2,1,1,26,8-2-6=1,2,1.376555818,1,9,1,3
2,1,1,27,9-1-3=4,2,1.289800004,1,10,1,4
2,1,1,28,6-2-3=1,1,1.491992897,1,9,1,3
2,1,1,29,9-5-3=1,1,1.749520232,1,10,1,4
2,1,1,30,9-4-4=2,2,1.558017987,1,10,2,4
2,1,1,31,9-6-2=0,2,1.69380357,1,9,1,3
2,1,1,32,9-1-2=6,1,1.733175896,1,9,1,3
2,1,1,33,7-2-5=1,2,1.436352846,1,9,2,3
2,1,1,34,7-1-2=4,1,1.581210124,1,9,2,3
2,1,1,35,9-2-1=6,1,1.558074467,1,9,2,3
2,1,1,36,7-3-3=1,1,1.323764027,1,10,1,4
2,1,1,37,6-1-1=3,2,1.335718773,1,9,1,3
2,1,1,38,9-2-3=5,2,1.509846326,1,9,1,3
2,1,1,39,8-1-3=4,1,1.245608551,1,9,1,3
2,1,1,40,7-3-4=0,1,1.584070411,1,9,2,3
2,1,1,41,7-2-1=4,1,1.580630383,1,10,1,4
2,1,1,42,9-3-4=1,2,1.443265931,0,10,1,3
2,1,1,43,8-6-2=0,1,1.58146043,1,9,2,3
2,1,1,44,9-1-5=2,2,0.823126677,1,9,1,3
2,1,1,45,8-2-1=5,1,1.116042835,1,9,2,3
2,1,1,46,8-3-3=1,2,1.161678643,1,9,2,3
2,1,1,47,7-2-2=4,2,1.119512445,1,10,2,4
2,1,1,48,8-2-5=1,1,1.248722426,1,10,1,4
2,1,1,49,8-1-5=2,1,1.800720635,1,9,2,3
2,1,1,50,8-3-5=1,2,1.381046025,1,9,1,3
2,1,1,51,9-4-5=0,1,1.309877488,1,9,2,3
2,1,1,52,6-4-2=0,1,1.231227159,1,10,1,4
2,2,1,1,9-2-7=0,1,1.064418799,1,9,2,3
2,2,1,2,9-2-2=4,2,1.360419232,1,10,2,4
2,2,1,3,7-5-2=1,2,1.491887514,1,9,1,3
2,2,1,4,9-3-1=5,1,1.158163297,1,10,2,4
2,2,1,5,9-2-6=0,2,1.051381359,1,10,1,4
2,2,1,6,8-5-3=1,2,0.780475042,0,10,1,3
2,2,1,7,8-1-2=6,2,1.169129566,1,10,2,4
2,2,1,8,5-1-1=2,2,1.599824258,1,9,2,3
2,2,1,9,7-4-2=0,2,1.584606866,1,10,2,4
2,2,1,10,8-3-4=1,1,1.182494161,1,10,1,4
2,2,1,11,9-3-2=4,1,1.57630339,1,9,1,3
2,2,1,12,6-2-4=1,2,1.133881641,1,10,1,4
2,2,1,13,7-2-4=1,1,1.337747026,1,9,1,3
2,2,1,14,9-3-6=0,1,1.48848327,1,9,2,3
2,2,1,15,6-1-2=3,1,1.80045282,1,9,2,3
2,2,1,16,5-2-3=1,2,1.638241014,1,9,1,3
2,2,1,17,8-1-1=6,1,1.08416897,1,9,1,3
2,2,1,18,9-1-6=3,2,1.182069742,0,10,2,3
2,2,1,19,9-3-5=0,2,1.424019634,0,10,1,3
2,2,1,20,8-5-2=1,1,1.23331977,1,9,1,3
2,2,1,21,9-5-1=2,2,1.909407938,1,10,1,4
2,2,1,22,7-1-4=2,1,1.381517595,1,9,2,3
2,2,1,23,8-1-4=3,1,1.745871743,1,9,1,3
2,2,1,24,7-1-1=4,2,1.53070945,1,9,1,3
2,2,1,25,8-2-2=5,2,1.596423893,1,9,1,3
2,2,1,26,8-2-6=1,2,1.405899503,1,9,1,3
2,2,1,27,9-1-3=4,2,1.289011267,1,9,2,3
2,2,1,28,6-2-3=1,1,1.951170174,1,9,2,3
2,2,1,29,9-5-3=1,1,1.555230939,1,9,1,3
2,2,1,30,9-4-4=2,2,3.186825022,0,10,2,3
2,2,1,31,9-6-2=0,2,1.425012968,1,9,1,3
2,2,1,32,9-1-2=6,1,1.336424337,1,10,2,4
2,2,1,33,7-2-5=1,2,1.892976178,1,10,2,4
2,2,1,34,7-1-2=4,1,1.596513856,1,9,2,3
2,2,1,35,9-2-1=6,1,1.565674042,1,10,1,4
2,2,1,36,7-3-3=1,1,1.271159415,1,10,2,4
2,2,1,37,6-1-1=3,2,2.26391275,1,9,1,3
2,2,1,38,9-2-3=5,2,1.253822117,1,9,2,3
2,2,1,39,8-1-3=4,1,1.61909313,0,10,1,3
2,2,1,40,7-3-4=0,1,1.571200752,1,9,2,3
2,2,1,41,7-2-1=4,1,1.59438611,1,10,2,4
2,2,1,42,9-3-4=1,2,2.079161676,1,9,2,3
2,2,1,43,8-6-2=0,1,2.589045965,1,10,1,4
2,2,1,44,9-1-5=2,2,1.38224326,1,10,2,4
2,2,1,45,8-2-1=5,1,1.671663429,1,9,1,3
2,2,1,46,8-3-3=1,2,2.446298473,1,9,2,3
2,2,1,47,7-2-2=4,2,1.750707611,1,9,1,3
2,2,1,48,8-2-5=1,1,1.562876506,1,9,1,3
2,2,1,49,8-1-5=2,1,2.217629867,1,9,1,3
2,2,1,50,8-3-5=1,2,5.674952086,1,9,2,3
2,2,1,51,9-4-5=0,1,2.130242549,1,9,1,3
2,2,1,52,6-4-2=0,1,2.701350513,1,9,1,3
2,3,2,1,9-6-2=0,2,2.914982153,1,10,2,4
2,3,2,2,7-3-4=0,1,1.839901196,1,10,2,4
2,3,2,3,7-2-4=1,1,2.332280595,1,9,1,3
2,3,2,4,9-3-6=0,1,2.513888499,1,9,2,3
2,3,2,5,9-1-3=4,2,3.797188623,1,10,2,4
2,3,2,6,8-1-4=3,1,3.175269655,0,10,2,3
2,3,2,7,9-3-4=1,2,1.461061386,1,9,2,3
2,3,2,8,5-2-3=1,2,1.774885745,1,9,2,3
2,3,2,9,8-3-5=1,2,1.918192273,1,9,2,3
2,3,2,10,7-2-1=4,1,1.809794421,1,9,1,3
2,3,2,11,7-1-1=4,2,1.590787769,1,10,1,4
2,3,2,12,6-2-4=1,2,1.663099312,1,10,1,4
2,3,2,13,9-4-5=0,1,2.047675787,1,9,2,3
2,3,2,14,9-2-7=0,1,1.813504496,1,10,2,4
2,3,2,15,9-4-4=2,2,2.641770543,1,10,2,4
2,3,2,16,8-5-2=1,1,1.447619243,1,10,2,4
2,3,2,17,7-1-2=4,1,1.285210726,1,10,2,4
2,3,2,18,7-2-5=1,2,1.535781822,1,10,2,4
2,3,2,19,7-5-2=1,2,2.503634152,1,9,1,3
2,3,2,20,9-5-3=1,1,1.51328198,1,10,1,4
2,3,2,21,8-2-2=5,2,1.646619661,1,9,2,3
2,3,2,22,6-2-3=1,1,2.664836835,1,9,1,3
2,3,2,23,8-3-4=1,1,1.529663342,1,9,2,3
2,3,2,24,8-5-3=1,2,1.601137425,1,9,1,3
2,3,2,25,9-2-3=5,2,2.191817456,1,10,1,4
2,3,2,26,8-6-2=0,1,1.559040694,1,10,1,4
2,3,2,27,8-1-1=6,1,1.946801422,1,10,1,4
2,3,2,28,7-1-4=2,1,1.463573549,1,10,1,4
2,3,2,29,8-1-2=6,2,1.796745168,1,9,2,3
2,3,2,30,8-2-5=1,1,2.048537937,1,9,1,3
2,3,2,31,9-2-2=4,2,1.621626342,1,9,1,3
2,3,2,32,6-1-1=3,2,1.511680516,1,10,1,4
2,3,2,33,7-3-3=1,1,2.016229382,1,9,1,3
2,3,2,34,8-3-3=1,2,1.522286013,1,9,2,3
2,3,2,35,9-1-6=3,2,1.533166563,1,10,1,4
2,3,2,36,6-1-2=3,1,1.560383153,1,9,1,3
2,3,2,37,8-1-3=4,1,1.123893932,1,9,2,3
2,3,2,38,7-4-2=0,2,1.102796618,1,9,1,3
2,3,2,39,9-2-6=0,2,1.146629179,1,9,2,3
2,3,2,40,8-2-1=5,1,1.833325277,1,10,2,4
2,3,2,41,7-2-2=4,2,1.362376412,1,10,1,4
2,3,2,42,5-1-1=2,2,1.609684613,1,10,2,4
2,3,2,43,8-2-6=1,2,1.825132271,1,10,2,4
2,3,2,44,9-3-2=4,1,1.116253226,1,10,1,4
2,3,2,45,9-5-1=2,2,1.413606557,1,10,2,4
2,3,2,46,9-3-5=0,2,1.812975874,1,9,2,3
2,3,2,47,8-1-5=2,1,1.851117497,1,10,1,4
2,3,2,48,9-2-1=6,1,2.078773116,1,9,1,3
2,3,2,49,9-1-2=6,1,1.697526873,1,9,2,3
2,3,2,50,6-4-2=0,1,1.393741695,1,9,1,3
2,3,2,51,9-3-1=5,1,1.355680343,1,9,2,3
2,3,2,52,9-1-5=2,2,1.599352895,1,9,1,3
2,4,2,1,9-6-2=0,2,1.373686739,1,9,1,3
2,4,2,2,7-3-4=0,1,1.713373203,1,9,2,3
2,4,2,3,7-2-4=1,1,1.428520774,1,9,2,3
2,4,2,4,9-3-6=0,1,1.09934364,1,9,1,3
2,4,2,5,9-1-3=4,2,1.562110481,1,9,2,3
2,4,2,6,8-1-4=3,1,2.397829578,1,10,1,4
2,4,2,7,9-3-4=1,2,1.623571668,1,9,1,3
2,4,2,8,5-2-3=1,2,1.573244359,1,10,1,4
2,4,2,9,8-3-5=1,2,1.560437832,1,9,2,3
2,4,2,10,7-2-1=4,1,1.613287863,1,10,1,4
2,4,2,11,7-1-1=4,2,1.723094135,1,9,1,3
2,4,2,12,6-2-4=1,2,1.583951544,1,10,2,4
2,4,2,13,9-4-5=0,1,1.352902317,1,10,2,4
2,4,2,14,9-2-7=0,1,1.677233543,1,10,1,4
2,4,2,15,9-4-4=2,2,1.510988398,1,10,2,4
2,4,2,16,8-5-2=1,1,2.092313769,1,9,2,3
2,4,2,17,7-1-2=4,1,1.233267127,1,9,1,3
2,4,2,18,7-2-5=1,2,1.608255254,1,9,2,3
2,4,2,19,7-5-2=1,2,1.429151488,1,9,2,3
2,4,2,20,9-5-3=1,1,1.322926929,1,9,1,3
2,4,2,21,8-2-2=5,2,2.285871664,1,10,2,4
2,4,2,22,6-2-3=1,1,1.576142959,1,10,2,4
2,4,2,23,8-3-4=1,1,1.552843572,1,10,2,4
2,4,2,24,8-5-3=1,2,1.882666137,1,9,1,3
2,4,2,25,9-2-3=5,2,1.636955069,1,10,2,4
2,4,2,26,8-6-2=0,1,1.206448433,1,10,2,4
2,4,2,27,8-1-1=6,1,1.193515688,1,10,2,4
2,4,2,28,7-1-4=2,1,1.267689696,1,9,1,3
2,4,2,29,8-1-2=6,2,1.550012005,1,10,1,4
2,4,2,30,8-2-5=1,1,1.223550901,1,9,1,3
2,4,2,31,9-2-2=4,2,1.279465949,1,10,1,4
2,4,2,32,6-1-1=3,2,1.399814003,1,10,2,4
2,4,2,33,7-3-3=1,1,1.382619529,1,9,2,3
2,4,2,34,8-3-3=1,2,1.210452184,1,10,2,4
2,4,2,35,9-1-6=3,2,1.268371506,1,9,1,3
2,4,2,36,6-1-2=3,1,1.267246496,1,10,2,4
2,4,2,37,8-1-3=4,1,1.384099477,1,10,2,4
2,4,2,38,7-4-2=0,2,1.608222287,1,10,1,4
2,4,2,39,9-2-6=0,2,1.420075949,1,9,2,3
2,4,2,40,8-2-1=5,1,1.614624435,1,10,1,4
2,4,2,41,7-2-2=4,2,1.730234472,1,10,2,4
2,4,2,42,5-1-1=2,2,2.150692698,1,9,2,3
2,4,2,43,8-2-6=1,2,1.552439795,1,10,1,4
2,4,2,44,9-3-2=4,1,2.228741548,1,10,1,4
2,4,2,45,9-5-1=2,2,1.72834241,1,9,2,3
2,4,2,46,9-3-5=0,2,1.737764426,1,9,2,3
2,4,2,47,8-1-5=2,1,1.748689173,1,10,1,4
2,4,2,48,9-2-1=6,1,1.610180599,1,10,1,4
2,4,2,49,9-1-2=6,1,1.397057985,1,10,1,4
2,4,2,50,6-4-2=0,1,2.854050224,1,9,1,3
2,4,2,51,9-3-1=5,1,1.796842162,1,9,1,3
2,4,2,52,9-1-5=2,2,1.226293183,1,9,1,3
3,1,1,1,9-3-2=4,1,1.291519578,1,9,2,3
3,1,1,2,9-5-3=1,1,5.27060167,1,10,1,4
3,1,1,3,7-5-2=1,2,1.245163816,1,10,1,4
3,1,1,4,8-1-3=4,1,2.698117279,1,9,1,3
3,1,1,5,9-2-2=4,2,2.354910556,1,10,1,4
3,1,1,6,8-5-2=1,1,4.607505876,1,10,1,4
3,1,1,7,7-3-4=0,1,1.667224664,1,10,2,4
3,1,1,8,9-3-6=0,1,2.169007223,1,9,2,3
3,1,1,9,8-2-6=1,2,1.790070272,1,9,1,3
3,1,1,10,5-2-3=1,2,3.800129115,1,10,1,4
3,1,1,11,7-2-5=1,2,1.836837105,1,9,2,3
3,1,1,12,9-6-2=0,2,3.099973699,1,9,1,3
3,1,1,13,8-2-1=5,1,1.246220981,0,9,2,4
3,1,1,14,8-2-5=1,1,1.926360987,1,10,1,4
3,1,1,15,9-1-6=3,2,1.048607716,1,9,2,3
3,1,1,16,6-1-2=3,1,2.275911753,1,10,1,4
3,1,1,17,7-2-1=4,1,1.007060062,1,9,1,3
3,1,1,18,8-1-4=3,1,0.931158786,1,9,1,3
3,1,1,19,9-2-6=0,2,1.184119988,1,9,2,3
3,1,1,20,9-4-4=2,2,2.694072781,1,10,2,4
3,1,1,21,7-2-4=1,1,1.936409514,1,10,2,4
3,1,1,22,9-3-4=1,2,1.027621666,1,10,2,4
3,1,1,23,8-1-1=6,1,2.149698307,1,9,2,3
3,1,1,24,7-1-4=2,1,1.915134201,1,10,1,4
3,1,1,25,6-2-3=1,1,1.875669426,1,10,2,4
3,1,1,26,9-2-3=5,2,1.861508901,1,10,2,4
3,1,1,27,8-1-5=2,1,2.132510049,1,10,1,4
3,1,1,28,8-1-2=6,2,2.000878187,1,10,2,4
3,1,1,29,9-2-1=6,1,2.114826143,1,9,2,3
3,1,1,30,9-3-1=5,1,1.733792077,1,9,2,3
3,1,1,31,7-3-3=1,1,2.332921877,1,10,1,4
3,1,1,32,7-1-1=4,2,1.618782393,1,9,2,3
3,1,1,33,9-1-5=2,2,1.529443268,1,9,2,3
3,1,1,34,7-1-2=4,1,1.986213194,1,9,2,3
3,1,1,35,5-1-1=2,2,1.975666149,1,9,2,3
3,1,1,36,9-5-1=2,2,1.268895914,1,9,2,3
3,1,1,37,6-4-2=0,1,1.120735397,1,10,2,4
3,1,1,38,9-1-2=6,1,3.65040047,1,10,1,4
3,1,1,39,8-3-4=1,1,1.778048241,1,10,1,4
3,1,1,40,9-2-7=0,1,3.255433366,1,9,1,3
3,1,1,41,8-6-2=0,1,2.700518694,1,10,1,4
3,1,1,42,9-4-5=0,1,1.4574814,1,9,1,3
3,1,1,43,7-4-2=0,2,1.668367059,1,9,2,3
3,1,1,44,9-1-3=4,2,1.727058064,1,9,2,3
3,1,1,45,6-1-1=3,2,1.200930985,1,10,2,4
3,1,1,46,9-3-5=0,2,3.565386092,1,9,1,3
3,1,1,47,8-3-3=1,2,1.379885324,1,10,2,4
3,1,1,48,8-2-2=5,2,1.888400094,1,9,1,3
3,1,1,49,6-2-4=1,2,2.334897825,1,9,1,3
3,1,1,50,8-5-3=1,2,2.955879109,1,10,1,4
3,1,1,51,7-2-2=4,2,2.698446646,1,9,2,3
3,1,1,52,8-3-5=1,2,2.001849814,1,10,1,4
3,2,1,1,9-3-2=4,1,1.746792559,1,9,1,3
3,2,1,2,9-5-3=1,1,1.009827843,1,9,1,3
3,2,1,3,7-5-2=1,2,1.359169945,1,10,1,4
3,2,1,4,8-1-3=4,1,1.797708032,1,9,2,3
3,2,1,5,9-2-2=4,2,1.504947466,1,10,1,4
3,2,1,6,8-5-2=1,1,1.243931338,1,9,2,3
3,2,1,7,7-3-4=0,1,1.010906034,1,10,2,4
3,2,1,8,9-3-6=0,1,1.642272277,1,9,2,3
3,2,1,9,8-2-6=1,2,1.713208284,1,9,2,3
3,2,1,10,5-2-3=1,2,1.491496242,1,10,1,4
3,2,1,11,7-2-5=1,2,1.621851642,1,9,2,3
3,2,1,12,9-6-2=0,2,1.53329871,1,9,1,3
3,2,1,13,8-2-1=5,1,1.338492483,1,10,1,4
3,2,1,14,8-2-5=1,1,0.788089312,1,10,1,4
3,2,1,15,9-1-6=3,2,1.767523588,1,9,1,3
3,2,1,16,6-1-2=3,1,1.78063478,1,9,2,3
3,2,1,17,7-2-1=4,1,1.673451552,1,9,2,3
3,2,1,18,8-1-4=3,1,2.396654531,1,9,1,3
3,2,1,19,9-2-6=0,2,1.641172838,1,9,1,3
3,2,1,20,9-4-4=2,2,2.637306685,1,9,1,3
3,2,1,21,7-2-4=1,1,4.022876788,1,10,1,4
3,2,1,22,9-3-4=1,2,1.935183831,1,9,2,3
3,2,1,23,8-1-1=6,1,4.225454422,1,10,1,4
3,2,1,24,7-1-4=2,1,1.44764987,1,10,2,4
3,2,1,25,6-2-3=1,1,1.578999221,1,9,1,3
3,2,1,26,9-2-3=5,2,1.406212742,1,10,2,4
3,2,1,27,8-1-5=2,1,1.214259366,1,10,1,4
3,2,1,28,8-1-2=6,2,1.910071544,1,9,1,3
3,2,1,29,9-2-1=6,1,1.667859479,1,10,2,4
3,2,1,30,9-3-1=5,1,1.71482869,1,9,2,3
3,2,1,31,7-3-3=1,1,1.747315165,1,9,2,3
3,2,1,32,7-1-1=4,2,1.679981633,1,9,1,3
3,2,1,33,9-1-5=2,2,1.864250803,1,9,2,3
3,2,1,34,7-1-2=4,1,1.668796211,1,10,1,4
3,2,1,35,5-1-1=2,2,1.668285806,1,9,2,3
3,2,1,36,9-5-1=2,2,0.852170927,1,10,2,4
3,2,1,37,6-4-2=0,1,1.358876528,1,10,1,4
3,2,1,38,9-1-2=6,1,1.079079888,1,10,1,4
3,2,1,39,8-3-4=1,1,1.016776604,1,10,2,4
3,2,1,40,9-2-7=0,1,1.309834122,1,10,1,4
3,2,1,41,8-6-2=0,1,1.35922972,1,10,1,4
3,2,1,42,9-4-5=0,1,2.875092224,1,10,2,4
3,2,1,43,7-4-2=0,2,2.327002464,1,9,2,3
3,2,1,44,9-1-3=4,2,2.002040616,1,10,1,4
3,2,1,45,6-1-1=3,2,1.218536763,1,10,1,4
3,2,1,46,9-3-5=0,2,1.967150119,1,10,2,4
3,2,1,47,8-3-3=1,2,1.467285234,1,10,2,4
3,2,1,48,8-2-2=5,2,1.584314789,1,9,2,3
3,2,1,49,6-2-4=1,2,3.099721628,1,10,1,4
3,2,1,50,8-5-3=1,2,1.581389722,1,10,1,4
3,2,1,51,7-2-2=4,2,1.007193578,1,10,1,4
3,2,1,52,8-3-5=1,2,1.087192329,1,9,1,3
3,3,2,1,7-2-5=1,2,4.512096531,1,9,1,3
3,3,2,2,8-1-5=2,1,3.051931455,1,10,2,4
3,3,2,3,7-2-4=1,1,2.35194525,1,10,1,4
3,3,2,4,8-3-5=1,2,3.154313265,1,9,1,3
3,3,2,5,6-4-2=0,1,3.409883161,1,10,2,4
3,3,2,6,8-5-3=1,2,2.484583725,1,9,1,3
3,3,2,7,6-1-2=3,1,2.628448862,1,9,2,3
3,3,2,8,5-1-1=2,2,2.460613404,1,9,2,3
3,3,2,9,8-3-3=1,2,2.312760272,1,9,1,3
3,3,2,10,8-2-5=1,1,3.281299665,1,9,1,3
3,3,2,11,8-2-1=5,1,2.899097803,1,10,1,4
3,3,2,12,9-2-1=6,1,2.589226041,1,10,2,4
3,3,2,13,9-2-7=0,1,3.275268244,1,9,1,3
3,3,2,14,7-3-3=1,1,2.961082187,1,10,1,4
3,3,2,15,7-4-2=0,2,2.942867315,1,9,1,3
3,3,2,16,9-3-1=5,1,2.078090587,1,9,2,3
3,3,2,17,8-1-3=4,1,2.062896464,1,10,2,4
3,3,2,18,9-1-3=4,2,2.650481472,1,10,1,4
3,3,2,19,6-1-1=3,2,1.879642892,1,10,2,4
3,3,2,20,9-1-6=3,2,2.165611226,1,10,1,4
3,3,2,21,9-3-2=4,1,1.940585192,1,9,1,3
3,3,2,22,8-1-2=6,2,1.657938471,1,9,1,3
3,3,2,23,9-5-1=2,2,1.646015887,1,10,1,4
3,3,2,24,9-3-5=0,2,1.966478293,1,9,1,3
3,3,2,25,9-3-4=1,2,2.120760152,1,10,2,4
3,3,2,26,8-2-6=1,2,1.803963316,1,9,1,3
3,3,2,27,7-1-4=2,1,2.385877036,1,10,1,4
3,3,2,28,8-1-4=3,1,1.848766453,1,10,2,4
3,3,2,29,9-4-5=0,1,2.417577819,1,9,2,3
3,3,2,30,9-5-3=1,1,2.183685791,1,10,1,4
3,3,2,31,9-2-2=4,2,1.894560916,1,9,1,3
3,3,2,32,7-2-2=4,2,1.910453978,1,9,1,3
3,3,2,33,8-2-2=5,2,1.79693969,1,10,1,4
3,3,2,34,9-4-4=2,2,2.386578842,1,10,1,4
3,3,2,35,8-3-4=1,1,1.814652421,1,9,2,3
3,3,2,36,9-1-2=6,1,1.643188962,1,9,1,3
3,3,2,37,9-2-3=5,2,1.427985155,1,10,1,4
3,3,2,38,9-1-5=2,2,1.711193954,1,9,1,3
3,3,2,39,6-2-4=1,2,1.293517125,1,9,1,3
3,3,2,40,5-2-3=1,2,2.112443113,1,9,2,3
3,3,2,41,7-2-1=4,1,1.229059163,1,9,2,3
3,3,2,42,7-3-4=0,1,1.574508901,1,10,1,4
3,3,2,43,8-5-2=1,1,1.518950848,1,10,2,4
3,3,2,44,8-6-2=0,1,1.068277879,1,9,1,3
3,3,2,45,6-2-3=1,1,1.444874474,1,10,2,4
3,3,2,46,9-3-6=0,1,1.414380851,1,10,2,4
3,3,2,47,9-2-6=0,2,1.98911995,1,9,1,3
3,3,2,48,7-1-2=4,1,1.261924856,1,10,1,4
3,3,2,49,9-6-2=0,2,1.671666611,1,9,2,3
3,3,2,50,8-1-1=6,1,1.431997683,1,10,2,4
3,3,2,51,7-5-2=1,2,1.24388251,1,9,2,3
3,3,2,52,7-1-1=4,2,1.912171386,1,9,2,3
3,4,2,1,7-2-5=1,2,1.879374636,1,10,2,4
3,4,2,2,8-1-5=2,1,1.25103533,1,9,2,3
3,4,2,3,7-2-4=1,1,1.115961089,1,10,2,4
3,4,2,4,8-3-5=1,2,1.872417686,1,9,1,3
3,4,2,5,6-4-2=0,1,1.276156014,1,10,1,4
3,4,2,6,8-5-3=1,2,1.440264132,1,10,1,4
3,4,2,7,6-1-2=3,1,1.406175272,1,9,2,3
3,4,2,8,5-1-1=2,2,1.657484391,1,9,2,3
3,4,2,9,8-3-3=1,2,1.128349039,1,9,1,3
3,4,2,10,8-2-5=1,1,1.176378665,1,10,1,4
3,4,2,11,8-2-1=5,1,1.428445687,1,10,2,4
3,4,2,12,9-2-1=6,1,1.996684417,1,10,2,4
3,4,2,13,9-2-7=0,1,1.673706328,1,9,2,3
3,4,2,14,7-3-3=1,1,1.307145363,1,9,1,3
3,4,2,15,7-4-2=0,2,1.349723065,1,9,1,3
3,4,2,16,9-3-1=5,1,1.283782555,1,9,2,3
3,4,2,17,8-1-3=4,1,1.169997833,1,9,1,3
3,4,2,18,9-1-3=4,2,1.191365679,1,9,1,3
3,4,2,19,6-1-1=3,2,1.371478658,1,10,2,4
3,4,2,20,9-1-6=3,2,1.354327986,1,9,2,3
3,4,2,21,9-3-2=4,1,1.45809178,1,9,2,3
3,4,2,22,8-1-2=6,2,1.911566296,1,9,2,3
3,4,2,23,9-5-1=2,2,1.709614458,1,10,1,4
3,4,2,24,9-3-5=0,2,1.456776156,1,10,2,4
3,4,2,25,9-3-4=1,2,1.761214018,1,10,1,4
3,4,2,26,8-2-6=1,2,1.380742925,1,9,1,3
3,4,2,27,7-1-4=2,1,1.895287837,1,10,2,4
3,4,2,28,8-1-4=3,1,2.041438445,1,10,1,4
3,4,2,29,9-4-5=0,1,1.414465998,1,9,2,3
3,4,2,30,9-5-3=1,1,1.420109496,1,9,1,3
3,4,2,31,9-2-2=4,2,1.652458215,1,10,1,4
3,4,2,32,7-2-2=4,2,1.321714134,1,9,1,3
3,4,2,33,8-2-2=5,2,1.787130477,1,10,2,4
3,4,2,34,9-4-4=2,2,1.357291938,1,9,1,3
3,4,2,35,8-3-4=1,1,1.208739927,1,10,1,4
3,4,2,36,9-1-2=6,1,1.622853576,1,9,1,3
3,4,2,37,9-2-3=5,2,1.587871867,1,9,2,3
3,4,2,38,9-1-5=2,2,1.552966216,1,10,2,4
3,4,2,39,6-2-4=1,2,1.448889857,1,10,2,4
3,4,2,40,5-2-3=1,2,1.569468342,1,9,2,3
3,4,2,41,7-2-1=4,1,1.526296189,1,10,1,4
3,4,2,42,7-3-4=0,1,1.397716117,1,10,2,4
3,4,2,43,8-5-2=1,1,1.304691377,1,10,1,4
3,4,2,44,8-6-2=0,1,1.738599812,1,10,2,4
3,4,2,45,6-2-3=1,1,1.414955171,1,10,1,4
3,4,2,46,9-3-6=0,1,1.237225909,1,9,1,3
3,4,2,47,9-2-6=0,2,1.316195124,1,10,1,4
3,4,2,48,7-1-2=4,1,1.368185561,1,9,1,3
3,4,2,49,9-6-2=0,2,1.360243471,1,10,2,4
3,4,2,50,8-1-1=6,1,1.206239558,1,9,2,3
3,4,2,51,7-5-2=1,2,1.689570539,1,9,2,3
3,4,2,52,7-1-1=4,2,1.299355641,1,9,1,3
4,1,1,1,5-2-3=0,2,1.54658289,1,10,1,4
4,1,1,2,6-2-4=0,2,1.324076325,1,9,2,3
4,1,1,3,9-2-2=5,2,1.472839532,1,9,2,3
4,1,1,4,9-3-4=2,2,1.913448648,1,10,1,4
4,1,1,5,5-1-1=3,2,1.892788003,1,10,2,4
4,1,1,6,7-2-2=3,2,1.032349528,1,9,1,3
4,1,1,7,8-1-3=5,1,1.25028731,1,10,1,4
4,1,1,8,7-1-2=3,1,1.691848316,1,10,1,4
4,1,1,9,9-2-1=5,1,1.287687773,1,10,1,4
4,1,1,10,6-1-2=4,1,1.706560656,1,10,2,4
4,1,1,11,8-3-3=2,2,1.731723539,1,10,2,4
4,1,1,12,7-2-1=3,1,2.040618111,1,10,2,4
4,1,1,13,8-1-2=5,2,1.449647515,1,9,1,3
4,1,1,14,9-5-1=3,2,1.415048941,1,10,2,4
4,1,1,15,8-6-2=1,1,1.690763888,1,9,2,3
4,1,1,16,8-1-4=2,1,1.708906125,1,9,2,3
4,1,1,17,8-2-5=0,1,0.941174335,1,9,1,3
4,1,1,18,8-2-2=4,2,3.381973741,1,9,2,3
4,1,1,19,9-2-7=1,1,1.855630973,1,10,1,4
4,1,1,20,7-2-4=0,1,2.494849697,1,10,1,4
4,1,1,21,7-3-4=1,1,3.447900388,1,10,1,4
4,1,1,22,8-3-5=0,2,1.866891351,1,10,2,4
4,1,1,23,9-2-3=4,2,1.531482236,1,9,2,3
4,1,1,24,9-1-5=3,2,1.995956981,1,10,1,4
4,1,1,25,7-1-4=3,1,1.743115534,1,10,2,4
4,1,1,26,9-1-3=5,2,1.451599714,1,10,2,4
4,1,1,27,6-4-2=1,1,1.246348757,1,10,2,4
4,1,1,28,9-3-6=1,1,2.065169053,1,9,2,3
4,1,1,29,9-1-6=2,2,1.682812042,1,9,1,3
4,1,1,30,9-3-1=4,1,1.07256727,1,10,1,4
4,1,1,31,7-3-3=2,1,2.06100711,1,10,2,4
4,1,1,32,8-3-4=2,1,1.339799755,1,10,2,4
4,1,1,33,9-4-5=1,1,1.637368259,1,9,2,3
4,1,1,34,8-5-2=0,1,1.951954761,1,10,1,4
4,1,1,35,7-1-1=5,2,2.98297754,1,10,2,4
4,1,1,36,9-3-2=5,1,2.281906113,1,10,2,4
4,1,1,37,7-5-2=0,2,1.513258121,1,9,2,3
4,1,1,38,7-4-2=1,2,1.528663011,1,9,1,3
4,1,1,39,9-6-2=1,2,2.594179963,1,10,2,4
4,1,1,40,8-1-5=3,1,1.358021929,1,10,1,4
4,1,1,41,6-2-3=0,1,1.651103728,1,9,1,3
4,1,1,42,8-2-1=4,1,2.187112216,1,10,1,4
4,1,1,43,8-1-1=5,1,2.391391088,1,9,2,3
4,1,1,44,9-1-2=5,1,1.488972702,1,9,2,3
4,1,1,45,9-3-5=1,2,1.599184801,1,9,1,3
4,1,1,46,8-2-6=0,2,1.364969602,1,10,1,4
4,1,1,47,9-4-4=1,2,4.112371973,1,10,2,4
4,1,1,48,8-5-3=0,2,1.671618171,1,9,2,3
4,1,1,49,9-5-3=0,1,1.63823574,1,9,2,3
4,1,1,50,6-1-1=4,2,2.02093905,1,9,2,3
4,1,1,51,7-2-5=0,2,2.867164403,1,10,2,4
4,1,1,52,9-2-6=1,2,1.144737124,1,10,1,4
4,2,1,1,5-2-3=0,2,1.469218295,1,9,2,3
4,2,1,2,6-2-4=0,2,1.84597496,1,9,2,3
4,2,1,3,9-2-2=5,2,1.337523092,1,9,1,3
4,2,1,4,9-3-4=2,2,1.585005049,1,9,2,3
4,2,1,5,5-1-1=3,2,1.754354908,1,10,2,4
4,2,1,6,7-2-2=3,2,1.311573492,1,9,1,3
4,2,1,7,8-1-3=5,1,1.8435902,1,10,2,4
4,2,1,8,7-1-2=3,1,1.383283251,1,10,2,4
4,2,1,9,9-2-1=5,1,1.122872349,1,9,1,3
4,2,1,10,6-1-2=4,1,2.110023716,1,9,2,3
4,2,1,11,8-3-3=2,2,1.31354873,1,10,2,4
4,2,1,12,7-2-1=3,1,2.743063026,1,9,2,3
4,2,1,13,8-1-2=5,2,1.447356612,1,10,1,4
4,2,1,14,9-5-1=3,2,1.414345627,1,10,1,4
4,2,1,15,8-6-2=1,1,1.780289523,1,9,2,3
4,2,1,16,8-1-4=2,1,1.934792848,1,9,2,3
4,2,1,17,8-2-5=0,1,1.49188391,1,10,2,4
4,2,1,18,8-2-2=4,2,1.385764392,1,10,1,4
4,2,1,19,9-2-7=1,1,1.232255084,1,9,1,3
4,2,1,20,7-2-4=0,1,2.700089816,1,10,2,4
4,2,1,21,7-3-4=1,1,1.513362872,1,10,1,4
4,2,1,22,8-3-5=0,2,2.725850021,1,9,2,3
4,2,1,23,9-2-3=4,2,3.009859369,1,9,2,3
4,2,1,24,9-1-5=3,2,1.737850137,1,9,1,3
4,2,1,25,7-1-4=3,1,1.403670772,1,10,1,4
4,2,1,26,9-1-3=5,2,1.781545954,1,9,2,3
4,2,1,27,6-4-2=1,1,1.401970253,1,10,1,4
4,2,1,28,9-3-6=1,1,1.776927042,1,10,2,4
4,2,1,29,9-1-6=2,2,1.817937583,1,9,2,3
4,2,1,30,9-3-1=4,1,4.629942049,1,10,2,4
4,2,1,31,7-3-3=2,1,4.044694353,1,10,2,4
4,2,1,32,8-3-4=2,1,1.953625116,1,10,2,4
4,2,1,33,9-4-5=1,1,1.39887716,1,9,1,3
4,2,1,34,8-5-2=0,1,1.204097126,1,10,1,4
4,2,1,35,7-1-1=5,2,1.692630894,1,10,2,4
4,2,1,36,9-3-2=5,1,1.621340608,1,10,2,4
4,2,1,37,7-5-2=0,2,4.464881047,1,9,2,3
4,2,1,38,7-4-2=1,2,1.751926493,1,10,2,4
4,2,1,39,9-6-2=1,2,1.99885537,1,9,2,3
4,2,1,40,8-1-5=3,1,3.854878063,1,9,2,3
4,2,1,41,6-2-3=0,1,1.493044539,1,10,1,4
4,2,1,42,8-2-1=4,1,3.626822234,1,10,2,4
4,2,1,43,8-1-1=5,1,1.386778116,1,10,1,4
4,2,1,44,9-1-2=5,1,1.528201817,1,10,2,4
4,2,1,45,9-3-5=1,2,1.911271818,1,10,1,4
4,2,1,46,8-2-6=0,2,1.402724077,1,9,1,3
4,2,1,47,9-4-4=1,2,1.346040977,1,9,1,3
4,2,1,48,8-5-3=0,2,1.530357402,1,10,1,4
4,2,1,49,9-5-3=0,1,1.675186645,1,9,1,3
4,2,1,50,6-1-1=4,2,1.146009089,1,10,1,4
4,2,1,51,7-2-5=0,2,1.485946819,1,10,1,4
4,2,1,52,9-2-6=1,2,1.646629427,1,10,1,4
4,3,2,1,5-1-1=3,2,1.893623882,1,10,1,4
4,3,2,2,6-2-3=0,1,2.294388168,1,9,1,3
4,3,2,3,8-2-5=0,1,1.940089944,1,10,2,4
4,3,2,4,9-3-4=2,2,1.577000534,1,10,2,4
4,3,2,5,9-2-2=5,2,1.666297728,1,10,2,4
4,3,2,6,9-5-1=3,2,1.908898397,1,10,1,4
4,3,2,7,7-3-3=2,1,1.460320293,1,10,1,4
4,3,2,8,7-1-4=3,1,1.965590501,1,10,1,4
4,3,2,9,8-2-1=4,1,1.422618784,1,10,2,4
4,3,2,10,9-1-6=2,2,1.809899725,1,9,2,3
4,3,2,11,9-3-1=4,1,1.723117941,1,10,1,4
4,3,2,12,9-2-7=1,1,1.587089989,1,10,2,4
4,3,2,13,6-2-4=0,2,2.217464091,1,10,1,4
4,3,2,14,9-2-1=5,1,2.012679643,1,10,1,4
4,3,2,15,9-4-5=1,1,1.975303104,1,10,2,4
4,3,2,16,7-5-2=0,2,1.416722866,1,10,1,4
4,3,2,17,7-3-4=1,1,2.740998168,1,9,1,3
4,3,2,18,7-2-4=0,1,1.772542282,1,9,2,3
4,3,2,19,9-3-2=5,1,1.798479775,1,9,1,3
4,3,2,20,7-1-1=5,2,1.605125526,1,9,1,3
4,3,2,21,9-5-3=0,1,2.104473978,1,9,2,3
4,3,2,22,9-1-2=5,1,1.578602558,1,9,1,3
4,3,2,23,8-2-6=0,2,1.801540563,1,9,2,3
4,3,2,24,8-3-4=2,1,1.40945978,1,10,2,4
4,3,2,25,7-1-2=3,1,1.588267932,1,10,1,4
4,3,2,26,8-1-3=5,1,1.722692506,1,10,1,4
4,3,2,27,7-2-2=3,2,1.584526229,1,10,1,4
4,3,2,28,8-1-4=2,1,1.910178308,1,10,1,4
4,3,2,29,8-3-5=0,2,1.809062962,1,9,1,3
4,3,2,30,8-2-2=4,2,1.619174267,1,10,1,4
4,3,2,31,7-2-5=0,2,1.589094037,1,10,1,4
4,3,2,32,8-5-3=0,2,2.114439084,1,9,2,3
4,3,2,33,9-3-5=1,2,1.574571521,1,10,2,4
4,3,2,34,9-1-3=5,2,1.578987446,1,10,1,4
4,3,2,35,8-5-2=0,1,1.319401377,1,10,2,4
4,3,2,36,9-3-6=1,1,1.420577657,1,10,2,4
4,3,2,37,8-1-1=5,1,2.061424281,1,10,2,4
4,3,2,38,9-6-2=1,2,1.327532305,1,10,2,4
4,3,2,39,9-2-6=1,2,1.937850367,1,9,1,3
4,3,2,40,8-1-5=3,1,1.459182879,1,9,2,3
4,3,2,41,9-4-4=1,2,1.457654317,1,10,1,4
4,3,2,42,8-1-2=5,2,1.463630849,1,9,1,3
4,3,2,43,8-3-3=2,2,1.293546138,1,10,2,4
4,3,2,44,9-2-3=4,2,1.620494112,1,10,2,4
4,3,2,45,7-2-1=3,1,1.259372296,1,10,1,4
4,3,2,46,5-2-3=0,2,1.466103408,1,9,1,3
4,3,2,47,9-1-5=3,2,1.744990843,1,9,2,3
4,3,2,48,8-6-2=1,1,1.45319386,1,10,2,4
4,3,2,49,6-4-2=1,1,1.388646981,1,10,2,4
4,3,2,50,6-1-1=4,2,1.322697875,1,10,1,4
4,3,2,51,6-1-2=4,1,1.532458113,1,9,2,3
4,3,2,52,7-4-2=1,2,1.907127031,1,9,2,3
4,4,2,1,5-1-1=3,2,2.373789876,1,10,1,4
4,4,2,2,6-2-3=0,1,1.585388733,1,9,1,3
4,4,2,3,8-2-5=0,1,1.651457556,1,9,2,3
4,4,2,4,9-3-4=2,2,1.599375249,1,9,2,3
4,4,2,5,9-2-2=5,2,1.363124803,1,9,1,3
4,4,2,6,9-5-1=3,2,1.267791712,1,10,1,4
4,4,2,7,7-3-3=2,1,1.583020217,1,9,2,3
4,4,2,8,7-1-4=3,1,1.649092965,1,10,2,4
4,4,2,9,8-2-1=4,1,1.511042056,1,9,2,3
4,4,2,10,9-1-6=2,2,1.842792875,1,10,2,4
4,4,2,11,9-3-1=4,1,1.619034547,1,10,1,4
4,4,2,12,9-2-7=1,1,1.320924186,1,10,1,4
4,4,2,13,6-2-4=0,2,1.545953802,1,9,2,3
4,4,2,14,9-2-1=5,1,1.614402314,1,10,2,4
4,4,2,15,9-4-5=1,1,1.748043095,1,9,1,3
4,4,2,16,7-5-2=0,2,1.675819326,1,9,1,3
4,4,2,17,7-3-4=1,1,1.544881795,1,10,1,4
4,4,2,18,7-2-4=0,1,1.49891638,1,9,1,3
4,4,2,19,9-3-2=5,1,1.746162947,1,10,2,4
4,4,2,20,7-1-1=5,2,2.299483778,1,10,1,4
4,4,2,21,9-5-3=0,1,1.345659155,1,10,2,4
4,4,2,22,9-1-2=5,1,1.908522324,1,9,2,3
4,4,2,23,8-2-6=0,2,2.332827711,1,9,1,3
4,4,2,24,8-3-4=2,1,1.323518698,1,10,2,4
4,4,2,25,7-1-2=3,1,2.060430669,1,9,1,3
4,4,2,26,8-1-3=5,1,2.22671831,1,10,1,4
4,4,2,27,7-2-2=3,2,1.72538438,1,10,1,4
4,4,2,28,8-1-4=2,1,2.419920492,1,10,1,4
4,4,2,29,8-3-5=0,2,1.907672962,1,10,2,4
4,4,2,30,8-2-2=4,2,2.723387559,1,9,2,3
4,4,2,31,7-2-5=0,2,1.809489835,1,10,2,4
4,4,2,32,8-5-3=0,2,1.985560788,1,10,2,4
4,4,2,33,9-3-5=1,2,1.748392589,1,10,2,4
4,4,2,34,9-1-3=5,2,1.672956179,1,10,2,4
4,4,2,35,8-5-2=0,1,1.595353218,1,9,1,3
4,4,2,36,9-3-6=1,1,1.551271815,1,10,2,4
4,4,2,37,8-1-1=5,1,1.575289891,1,9,1,3
4,4,2,38,9-6-2=1,2,1.46054434,1,9,1,3
4,4,2,39,9-2-6=1,2,1.760716941,1,9,1,3
4,4,2,40,8-1-5=3,1,1.284771017,1,10,2,4
4,4,2,41,9-4-4=1,2,1.848811681,1,9,1,3
4,4,2,42,8-1-2=5,2,1.740218562,1,10,1,4
4,4,2,43,8-3-3=2,2,1.255777868,1,9,1,3
4,4,2,44,9-2-3=4,2,1.3308038,1,10,1,4
4,4,2,45,7-2-1=3,1,1.594943911,1,9,2,3
4,4,2,46,5-2-3=0,2,1.453038057,1,9,1,3
4,4,2,47,9-1-5=3,2,1.345022802,1,9,1,3
4,4,2,48,8-6-2=1,1,1.026993413,1,9,2,3
4,4,2,49,6-4-2=1,1,1.576225304,1,10,2,4
4,4,2,50,6-1-1=4,2,1.783646398,1,9,1,3
4,4,2,51,6-1-2=4,1,1.728700643,1,9,1,3
4,4,2,52,7-4-2=1,2,1.938295489,1,9,2,3
5,1,1,1,7-5-2=0,2,1.485112012,1,9,2,3
5,1,1,2,9-3-1=4,1,1.397915304,1,10,1,4
5,1,1,3,8-3-4=2,1,0.974622091,1,9,1,3
5,1,1,4,9-3-5=1,2,1.579176205,1,10,1,4
5,1,1,5,6-4-2=1,1,1.302179628,0,10,2,3
5,1,1,6,8-1-2=5,2,1.50392319,1,9,1,3
5,1,1,7,7-2-4=0,1,2.412981521,1,9,2,3
5,1,1,8,9-1-3=5,2,1.508329773,1,10,2,4
5,1,1,9,5-1-1=3,2,2.186052981,1,9,1,3
5,1,1,10,9-3-4=2,2,2.501056665,1,9,2,3
5,1,1,11,7-1-4=3,1,3.270983876,1,9,2,3
5,1,1,12,8-1-1=5,1,2.332010918,1,10,1,4
5,1,1,13,7-4-2=1,2,2.481115846,1,10,2,4
5,1,1,14,9-3-6=1,1,2.440876938,1,9,2,3
5,1,1,15,9-2-3=4,2,3.009266544,1,9,2,3
5,1,1,16,9-1-2=5,1,1.448163214,1,9,1,3
5,1,1,17,6-1-2=4,1,1.246553399,1,9,1,3
5,1,1,18,9-5-3=0,1,1.382972947,1,9,2,3
5,1,1,19,7-2-5=0,2,1.495298533,1,10,2,4
5,1,1,20,9-5-1=3,2,1.210609936,1,9,1,3
5,1,1,21,8-2-5=0,1,1.89452208,1,10,2,4
5,1,1,22,9-3-2=5,1,2.001307562,1,10,1,4
5,1,1,23,8-5-3=0,2,1.75220813,1,10,2,4
5,1,1,24,6-2-4=0,2,1.365762315,1,9,2,3
5,1,1,25,8-1-3=5,1,1.692629446,1,9,1,3
5,1,1,26,9-1-5=3,2,1.175152688,1,10,2,4
5,1,1,27,9-2-7=1,1,2.37214642,1,9,2,3
5,1,1,28,7-3-4=1,1,2.064589711,1,9,2,3
5,1,1,29,8-3-3=2,2,2.237676374,1,9,2,3
5,1,1,30,7-1-1=5,2,2.739256002,1,10,1,4
5,1,1,31,6-1-1=4,2,2.2194828,1,10,1,4
5,1,1,32,6-2-3=0,1,2.349069941,1,9,1,3
5,1,1,33,9-6-2=1,2,1.243316403,1,10,2,4
5,1,1,34,7-2-1=3,1,2.109239043,1,10,1,4
5,1,1,35,8-2-2=4,2,1.323237816,1,10,2,4
5,1,1,36,7-3-3=2,1,1.52999248,0,9,2,4
5,1,1,37,8-6-2=1,1,1.225701776,1,10,1,4
5,1,1,38,9-4-4=1,2,1.82155926,1,9,1,3
5,1,1,39,8-5-2=0,1,2.134385565,1,9,2,3
5,1,1,40,8-3-5=0,2,1.420854449,1,10,2,4
5,1,1,41,8-1-4=2,1,1.416520436,1,10,2,4
5,1,1,42,9-2-2=5,2,1.754309921,1,10,1,4
5,1,1,43,8-2-6=0,2,1.164401422,1,10,2,4
5,1,1,44,7-2-2=3,2,1.243312893,1,10,1,4
5,1,1,45,9-1-6=2,2,1.09337172,1,10,2,4
5,1,1,46,9-2-6=1,2,1.178985617,1,10,2,4
5,1,1,47,9-2-1=5,1,1.164606907,1,10,1,4
5,1,1,48,7-1-2=3,1,1.455075633,1,10,2,4
5,1,1,49,9-4-5=1,1,1.733476931,1,9,2,3
5,1,1,50,8-1-5=3,1,1.361772875,1,10,1,4
5,1,1,51,5-2-3=0,2,1.049746439,1,10,2,4
5,1,1,52,8-2-1=4,1,1.161460378,1,10,1,4
5,2,1,1,7-5-2=0,2,1.527473673,1,9,1,3
5,2,1,2,9-3-1=4,1,1.559167936,1,10,1,4
5,2,1,3,8-3-4=2,1,1.93270108,1,10,1,4
5,2,1,4,9-3-5=1,2,1.432459313,1,9,1,3
5,2,1,5,6-4-2=1,1,1.625215436,1,10,2,4
5,2,1,6,8-1-2=5,2,1.727319886,1,9,1,3
5,2,1,7,7-2-4=0,1,1.170928415,1,10,2,4
5,2,1,8,9-1-3=5,2,2.149104244,1,9,1,3
5,2,1,9,5-1-1=3,2,2.988482811,0,9,2,4
5,2,1,10,9-3-4=2,2,1.778373827,1,9,1,3
5,2,1,11,7-1-4=3,1,1.161326557,1,10,2,4
5,2,1,12,8-1-1=5,1,1.403803089,1,10,2,4
5,2,1,13,7-4-2=1,2,2.520678101,1,9,1,3
5,2,1,14,9-3-6=1,1,1.931328787,1,9,2,3
5,2,1,15,9-2-3=4,2,1.78366698,1,10,2,4
5,2,1,16,9-1-2=5,1,1.344924427,1,10,2,4
5,2,1,17,6-1-2=4,1,1.802195422,1,10,1,4
5,2,1,18,9-5-3=0,1,1.633451356,1,9,2,3
5,2,1,19,7-2-5=0,2,1.087274455,1,10,2,4
5,2,1,20,9-5-1=3,2,1.417579485,1,10,2,4
5,2,1,21,8-2-5=0,1,1.471274892,1,9,1,3
5,2,1,22,9-3-2=5,1,1.713393789,1,9,1,3
5,2,1,23,8-5-3=0,2,1.087559418,1,10,1,4
5,2,1,24,6-2-4=0,2,1.048543761,1,10,2,4
5,2,1,25,8-1-3=5,1,1.558937843,1,9,1,3
5,2,1,26,9-1-5=3,2,1.488340781,1,9,2,3
5,2,1,27,9-2-7=1,1,1.843941345,1,9,1,3
5,2,1,28,7-3-4=1,1,1.942458561,1,10,2,4
5,2,1,29,8-3-3=2,2,1.27333729,1,9,2,3
5,2,1,30,7-1-1=5,2,3.672760728,1,9,2,3
5,2,1,31,6-1-1=4,2,1.574072789,1,10,1,4
5,2,1,32,6-2-3=0,1,1.584354742,1,9,2,3
5,2,1,33,9-6-2=1,2,2.29619371,1,9,1,3
5,2,1,34,7-2-1=3,1,1.423447331,1,10,2,4
5,2,1,35,8-2-2=4,2,1.231481867,1,10,2,4
5,2,1,36,7-3-3=2,1,2.326393552,1,9,1,3
5,2,1,37,8-6-2=1,1,2.660655502,1,9,2,3
5,2,1,38,9-4-4=1,2,2.635729649,1,9,2,3
5,2,1,39,8-5-2=0,1,1.967853388,1,9,2,3
5,2,1,40,8-3-5=0,2,1.502595809,1,10,2,4
5,2,1,41,8-1-4=2,1,2.336912325,1,9,1,3
5,2,1,42,9-2-2=5,2,1.564408589,1,10,1,4
5,2,1,43,8-2-6=0,2,1.968806689,1,9,1,3
5,2,1,44,7-2-2=3,2,1.93121424,1,9,2,3
5,2,1,45,9-1-6=2,2,1.931839735,1,10,1,4
5,2,1,46,9-2-6=1,2,1.285888401,1,10,2,4
5,2,1,47,9-2-1=5,1,1.26826862,1,10,2,4
5,2,1,48,7-1-2=3,1,2.257228317,1,10,2,4
5,2,1,49,9-4-5=1,1,1.427003303,1,9,2,3
5,2,1,50,8-1-5=3,1,1.788824476,1,10,1,4
5,2,1,51,5-2-3=0,2,2.856054159,1,9,1,3
5,2,1,52,8-2-1=4,1,2.3107962,1,9,2,3
5,3,2,1,6-1-1=4,2,1.519670355,1,10,1,4
5,3,2,2,7-5-2=0,2,2.012753929,1,9,2,3
5,3,2,3,9-2-7=1,1,1.511747978,1,10,2,4
5,3,2,4,7-2-2=3,2,1.976064027,1,10,2,4
5,3,2,5,9-5-1=3,2,1.672372939,1,10,2,4
5,3,2,6,7-4-2=1,2,1.74869248,1,9,2,3
5,3,2,7,5-2-3=0,2,1.468793958,1,10,1,4
5,3,2,8,8-5-2=0,1,2.035019153,1,10,1,4
5,3,2,9,8-6-2=1,1,1.651859343,1,9,2,3
5,3,2,10,8-3-3=2,2,1.680586682,1,9,2,3
5,3,2,11,9-3-4=2,2,1.941914552,1,10,1,4
5,3,2,12,9-1-6=2,2,1.328009635,1,9,1,3
5,3,2,13,9-3-5=1,2,1.392148644,1,9,1,3
5,3,2,14,8-1-3=5,1,1.489347248,1,10,1,4
5,3,2,15,7-2-1=3,1,1.421936346,1,10,2,4
5,3,2,16,9-1-3=5,2,2.17074779,1,10,1,4
5,3,2,17,6-4-2=1,1,2.134624363,1,10,1,4
5,3,2,18,6-2-3=0,1,2.039085821,1,9,1,3
5,3,2,19,9-6-2=1,2,1.390837707,1,10,1,4
5,3,2,20,7-2-4=0,1,1.865748226,1,9,2,3
5,3,2,21,9-3-1=4,1,1.480766043,1,10,2,4
5,3,2,22,9-2-6=1,2,1.584219672,1,10,2,4
5,3,2,23,6-1-2=4,1,1.28803782,1,10,2,4
5,3,2,24,8-1-2=5,2,1.734328219,1,10,2,4
5,3,2,25,7-3-3=2,1,1.806195365,1,9,1,3
5,3,2,26,9-5-3=0,1,1.719046699,1,9,1,3
5,3,2,27,9-2-1=5,1,1.495957263,1,10,2,4
5,3,2,28,6-2-4=0,2,1.469492799,1,9,1,3
5,3,2,29,9-1-2=5,1,1.359044784,1,10,2,4
5,3,2,30,5-1-1=3,2,1.747966645,1,9,2,3
5,3,2,31,9-4-5=1,1,1.22555288,1,10,2,4
5,3,2,32,9-1-5=3,2,1.780935014,1,10,2,4
5,3,2,33,8-1-4=2,1,1.934924725,1,9,2,3
5,3,2,34,9-3-2=5,1,1.350643072,1,10,1,4
5,3,2,35,8-3-5=0,2,1.843475671,1,9,2,3
5,3,2,36,8-1-5=3,1,1.33239699,1,9,2,3
5,3,2,37,8-5-3=0,2,1.259479564,1,10,2,4
5,3,2,38,8-2-5=0,1,1.264443087,1,9,2,3
5,3,2,39,9-3-6=1,1,1.588019826,1,10,2,4
5,3,2,40,7-3-4=1,1,0.704378951,1,10,2,4
5,3,2,41,9-4-4=1,2,2.525683597,1,9,1,3
5,3,2,42,7-1-2=3,1,1.460315786,1,10,2,4
5,3,2,43,8-2-1=4,1,1.528550897,1,10,2,4
5,3,2,44,9-2-2=5,2,1.747613333,1,9,2,3
5,3,2,45,7-1-4=3,1,2.23016019,1,9,1,3
5,3,2,46,8-2-2=4,2,1.672866017,1,10,1,4
5,3,2,47,8-1-1=5,1,1.16326098,1,10,2,4
5,3,2,48,8-2-6=0,2,1.852392051,1,9,1,3
5,3,2,49,7-1-1=5,2,1.714667394,1,9,1,3
5,3,2,50,9-2-3=4,2,0.937738189,1,10,2,4
5,3,2,51,8-3-4=2,1,1.28931386,1,10,2,4
5,3,2,52,7-2-5=0,2,1.45173103,1,10,1,4
5,4,2,1,6-1-1=4,2,1.364898123,1,10,2,4
5,4,2,2,7-5-2=0,2,1.259784369,1,9,1,3
5,4,2,3,9-2-7=1,1,1.385778771,1,9,1,3
5,4,2,4,7-2-2=3,2,1.83928915,1,9,2,3
5,4,2,5,9-5-1=3,2,1.260775159,1,10,2,4
5,4,2,6,7-4-2=1,2,1.594752067,1,10,2,4
5,4,2,7,5-2-3=0,2,1.905897758,1,9,1,3
5,4,2,8,8-5-2=0,1,1.777483071,1,10,2,4
5,4,2,9,8-6-2=1,1,1.19964656,1,10,1,4
5,4,2,10,8-3-3=2,2,1.714936699,1,9,2,3
5,4,2,11,9-3-4=2,2,1.554387374,1,9,2,3
5,4,2,12,9-1-6=2,2,1.719589564,1,9,2,3
5,4,2,13,9-3-5=1,2,1.851991253,1,9,1,3
5,4,2,14,8-1-3=5,1,1.326320447,1,10,2,4
5,4,2,15,7-2-1=3,1,1.258459716,1,10,2,4
5,4,2,16,9-1-3=5,2,1.492839276,1,10,2,4
5,4,2,17,6-4-2=1,1,1.586191441,1,9,2,3
5,4,2,18,6-2-3=0,1,1.361595489,1,10,2,4
5,4,2,19,9-6-2=1,2,1.643561525,1,9,1,3
5,4,2,20,7-2-4=0,1,1.458985802,1,10,2,4
5,4,2,21,9-3-1=4,1,1.900888988,1,9,2,3
5,4,2,22,9-2-6=1,2,2.204695023,1,9,2,3
5,4,2,23,6-1-2=4,1,1.517876784,1,10,1,4
5,4,2,24,8-1-2=5,2,1.685149178,1,10,1,4
5,4,2,25,7-3-3=2,1,1.589450645,1,9,2,3
5,4,2,26,9-5-3=0,1,2.198966262,1,9,2,3
5,4,2,27,9-2-1=5,1,1.822180539,1,9,2,3
5,4,2,28,6-2-4=0,2,1.671104014,0,10,2,3
5,4,2,29,9-1-2=5,1,1.54848672,1,9,1,3
5,4,2,30,5-1-1=3,2,1.525040044,1,9,1,3
5,4,2,31,9-4-5=1,1,1.488443478,1,10,1,4
5,4,2,32,9-1-5=3,2,1.425275738,1,10,1,4
5,4,2,33,8-1-4=2,1,1.584335115,1,9,1,3
5,4,2,34,9-3-2=5,1,1.525750905,1,10,2,4
5,4,2,35,8-3-5=0,2,1.327848429,1,10,1,4
5,4,2,36,8-1-5=3,1,1.358026444,1,10,1,4
5,4,2,37,8-5-3=0,2,1.454353764,1,10,2,4
5,4,2,38,8-2-5=0,1,1.590235947,1,9,1,3
5,4,2,39,9-3-6=1,1,1.326917776,1,10,2,4
5,4,2,40,7-3-4=1,1,1.847668936,1,10,1,4
5,4,2,41,9-4-4=1,2,1.359896121,1,10,2,4
5,4,2,42,7-1-2=3,1,1.752639863,1,9,1,3
5,4,2,43,8-2-1=4,1,1.973915391,1,9,2,3
5,4,2,44,9-2-2=5,2,1.593519924,1,9,1,3
5,4,2,45,7-1-4=3,1,1.807283232,1,9,1,3
5,4,2,46,8-2-2=4,2,1.460729055,1,10,2,4
5,4,2,47,8-1-1=5,1,1.466139822,1,10,2,4
5,4,2,48,8-2-6=0,2,1.882079794,1,9,2,3
5,4,2,49,7-1-1=5,2,1.359005154,1,10,1,4
5,4,2,50,9-2-3=4,2,1.353013374,1,10,1,4
5,4,2,51,8-3-4=2,1,1.161032881,1,10,2,4
5,4,2,52,7-2-5=0,2,1.261614909,1,10,2,4
6,1,1,1,8-1-3=5,1,1.525290952,1,9,1,3
6,1,1,2,9-3-5=1,2,1.485572958,1,9,2,3
6,1,1,3,7-2-1=3,1,2.500006166,1,10,1,4
6,1,1,4,8-2-6=0,2,1.173488725,0,10,2,3
6,1,1,5,8-1-5=3,1,1.373325676,1,10,2,4
6,1,1,6,9-3-4=2,2,1.008554238,1,9,2,3
6,1,1,7,6-2-4=0,2,1.683324424,1,9,2,3
6,1,1,8,9-3-6=1,1,1.775974294,1,9,2,3
6,1,1,9,8-2-2=4,2,1.486775817,1,10,2,4
6,1,1,10,9-1-2=5,1,1.269761311,1,9,2,3
6,1,1,11,8-5-2=0,1,1.81574861,1,10,2,4
6,1,1,12,7-2-5=0,2,1.469894349,1,10,1,4
6,1,1,13,6-2-3=0,1,1.213618818,1,10,2,4
6,1,1,14,9-2-6=1,2,1.4696616,0,10,2,3
6,1,1,15,7-2-4=0,1,1.024212513,1,9,2,3
6,1,1,16,7-1-2=3,1,1.886265554,1,9,1,3
6,1,1,17,9-3-1=4,1,1.762349268,1,10,2,4
6,1,1,18,9-2-1=5,1,1.156092848,1,9,2,3
6,1,1,19,9-1-5=3,2,1.793924822,1,9,1,3
6,1,1,20,7-1-1=5,2,2.368295177,1,9,1,3
6,1,1,21,8-1-2=5,2,1.945776367,1,10,1,4
6,1,1,22,9-2-3=4,2,6.88073153,0,10,2,3
6,1,1,23,7-5-2=0,2,1.463923728,1,9,1,3
6,1,1,24,8-3-5=0,2,1.927265513,1,10,2,4
6,1,1,25,7-1-4=3,1,1.777606625,1,9,1,3
6,1,1,26,8-2-1=4,1,1.415848087,1,10,2,4
6,1,1,27,9-6-2=1,2,1.574564689,1,10,2,4
6,1,1,28,6-1-1=4,2,2.256638178,1,9,1,3
6,1,1,29,8-3-4=2,1,2.252142835,1,9,1,3
6,1,1,30,9-2-7=1,1,1.874740728,1,10,2,4
6,1,1,31,9-5-1=3,2,2.384814232,1,10,1,4
6,1,1,32,9-3-2=5,1,1.831122441,1,9,2,3
6,1,1,33,9-1-6=2,2,2.655846014,1,10,2,4
6,1,1,34,9-4-4=1,2,4.784155923,1,10,1,4
6,1,1,35,7-2-2=3,2,2.959572668,1,10,1,4
6,1,1,36,6-4-2=1,1,4.722035176,1,9,1,3
6,1,1,37,5-1-1=3,2,5.683908566,1,10,1,4
6,1,1,38,9-5-3=0,1,1.434738588,1,9,1,3
6,1,1,39,8-6-2=1,1,2.150971476,1,9,2,3
6,1,1,40,9-2-2=5,2,1.521960634,1,9,2,3
6,1,1,41,8-1-4=2,1,1.577049468,1,9,1,3
6,1,1,42,9-4-5=1,1,3.193958681,1,10,1,4
6,1,1,43,6-1-2=4,1,2.009650848,1,10,2,4
6,1,1,44,8-5-3=0,2,1.197350468,1,9,2,3
6,1,1,45,7-3-4=1,1,1.706757078,1,9,1,3
6,1,1,46,7-3-3=2,1,1.859260645,1,9,1,3
6,1,1,47,5-2-3=0,2,1.468769903,1,9,2,3
6,1,1,48,8-3-3=2,2,2.348864174,1,9,1,3
6,1,1,49,9-1-3=5,2,1.415480941,1,9,2,3
6,1,1,50,7-4-2=1,2,1.447994733,1,9,1,3
6,1,1,51,8-1-1=5,1,8.177015485,1,10,2,4
6,1,1,52,8-2-5=0,1,1.427064151,1,10,2,4
6,2,1,1,8-1-3=5,1,2.07427309,1,10,1,4
6,2,1,2,9-3-5=1,2,2.014411339,1,9,2,3
6,2,1,3,7-2-1=3,1,3.318714123,1,10,1,4
6,2,1,4,8-2-6=0,2,1.637035029,1,10,2,4
6,2,1,5,8-1-5=3,1,1.542404048,1,10,1,4
6,2,1,6,9-3-4=2,2,3.353677123,1,10,2,4
6,2,1,7,6-2-4=0,2,2.832267804,1,10,1,4
6,2,1,8,9-3-6=1,1,1.462031022,1,9,1,3
6,2,1,9,8-2-2=4,2,2.183402291,1,9,1,3
6,2,1,10,9-1-2=5,1,1.354138275,1,9,1,3
6,2,1,11,8-5-2=0,1,2.161253768,1,10,1,4
6,2,1,12,7-2-5=0,2,1.353115409,1,9,1,3
6,2,1,13,6-2-3=0,1,2.127224002,1,10,2,4
6,2,1,14,9-2-6=1,2,3.393999725,1,10,1,4
6,2,1,15,7-2-4=0,1,2.017878044,1,10,2,4
6,2,1,16,7-1-2=3,1,2.072469911,1,9,2,3
6,2,1,17,9-3-1=4,1,1.400079335,1,10,2,4
6,2,1,18,9-2-1=5,1,2.290613115,1,10,1,4
6,2,1,19,9-1-5=3,2,1.70436897,1,10,1,4
6,2,1,20,7-1-1=5,2,2.565188928,1,10,1,4
6,2,1,21,8-1-2=5,2,1.465743768,1,9,2,3
6,2,1,22,9-2-3=4,2,1.197312396,1,9,1,3
6,2,1,23,7-5-2=0,2,1.796726925,1,9,1,3
6,2,1,24,8-3-5=0,2,4.916592453,1,10,1,4
6,2,1,25,7-1-4=3,1,2.094181494,1,9,2,3
6,2,1,26,8-2-1=4,1,1.945403051,1,9,1,3
6,2,1,27,9-6-2=1,2,2.990632076,1,9,2,3
6,2,1,28,6-1-1=4,2,1.777860513,1,9,1,3
6,2,1,29,8-3-4=2,1,8.043021598,1,10,2,4
6,2,1,30,9-2-7=1,1,7.472369971,1,10,2,4
6,2,1,31,9-5-1=3,2,4.130119348,1,10,1,4
6,2,1,32,9-3-2=5,1,1.343055077,0,9,2,4
6,2,1,33,9-1-6=2,2,1.41425853,1,9,1,3
6,2,1,34,9-4-4=1,2,2.164670272,1,9,2,3
6,2,1,35,7-2-2=3,2,2.122932647,1,9,1,3
6,2,1,36,6-4-2=1,1,2.897216339,1,9,2,3
6,2,1,37,5-1-1=3,2,8.794531899,1,10,1,4
6,2,1,38,9-5-3=0,1,4.788439938,1,10,2,4
6,2,1,39,8-6-2=1,1,1.591311019,1,9,2,3
6,2,1,40,9-2-2=5,2,2.598342173,1,10,2,4
6,2,1,41,8-1-4=2,1,1.871530292,1,10,2,4
6,2,1,42,9-4-5=1,1,1.28798766,1,9,1,3
6,2,1,43,6-1-2=4,1,1.510032828,1,9,1,3
6,2,1,44,8-5-3=0,2,2.203457041,1,10,1,4
6,2,1,45,7-3-4=1,1,1.592122546,0,10,2,3
6,2,1,46,7-3-3=2,1,1.196589327,1,9,1,3
6,2,1,47,5-2-3=0,2,1.597838633,1,10,1,4
6,2,1,48,8-3-3=2,2,1.447402611,1,9,1,3
6,2,1,49,9-1-3=5,2,1.654004785,1,9,1,3
6,2,1,50,7-4-2=1,2,3.910281803,1,9,1,3
6,2,1,51,8-1-1=5,1,3.223490512,1,10,1,4
6,2,1,52,8-2-5=0,1,1.422379324,1,9,1,3
6,3,2,1,5-1-1=3,2,2.099985429,1,9,2,3
6,3,2,2,8-1-5=3,1,2.484953282,1,10,2,4
6,3,2,3,7-2-4=0,1,1.452348313,1,9,2,3
6,3,2,4,9-2-2=5,2,1.522732606,1,9,1,3
6,3,2,5,9-2-7=1,1,1.668011647,1,10,1,4
6,3,2,6,7-4-2=1,2,1.750738306,1,10,1,4
6,3,2,7,9-5-1=3,2,1.387964858,1,9,2,3
6,3,2,8,7-3-3=2,1,1.522505733,1,9,1,3
6,3,2,9,8-2-6=0,2,1.427075565,1,10,2,4
6,3,2,10,6-1-2=4,1,1.150264098,1,9,2,3
6,3,2,11,7-5-2=0,2,1.5633511,1,10,1,4
6,3,2,12,9-2-6=1,2,1.607806749,1,10,1,4
6,3,2,13,7-2-5=0,2,1.737747572,1,10,2,4
6,3,2,14,9-5-3=0,1,1.25516522,1,10,1,4
6,3,2,15,9-3-4=2,2,1.134142624,1,9,1,3
6,3,2,16,9-2-3=4,2,1.339979655,1,10,2,4
6,3,2,17,8-1-3=5,1,1.723345254,1,10,2,4
6,3,2,18,6-2-3=0,1,1.574801298,1,9,2,3
6,3,2,19,8-5-2=0,1,1.402467503,1,10,2,4
6,3,2,20,7-1-2=3,1,1.573984338,1,10,1,4
6,3,2,21,9-3-2=5,1,1.557132188,1,10,1,4
6,3,2,22,7-2-1=3,1,1.354170833,1,10,2,4
6,3,2,23,7-1-1=5,2,1.373838622,1,10,1,4
6,3,2,24,9-4-5=1,1,1.309367936,1,10,1,4
6,3,2,25,7-1-4=3,1,1.68690471,1,9,1,3
6,3,2,26,8-1-4=2,1,1.136351774,1,9,2,3
6,3,2,27,8-3-5=0,2,1.310389835,1,9,2,3
6,3,2,28,8-2-1=4,1,1.365732847,1,10,2,4
6,3,2,29,6-1-1=4,2,1.189568278,1,9,1,3
6,3,2,30,9-1-5=3,2,1.577102615,1,9,2,3
6,3,2,31,9-1-6=2,2,1.450692453,1,9,2,3
6,3,2,32,8-1-2=5,2,1.135768188,1,10,2,4
6,3,2,33,9-6-2=1,2,1.433647444,1,10,2,4
6,3,2,34,9-1-2=5,1,1.257538614,1,9,1,3
6,3,2,35,7-2-2=3,2,1.583859328,1,9,2,3
6,3,2,36,9-4-4=1,2,1.381395023,1,9,1,3
6,3,2,37,9-3-5=1,2,1.453981302,1,9,1,3
6,3,2,38,8-1-1=5,1,1.687552523,1,9,2,3
6,3,2,39,6-4-2=1,1,2.140203307,1,10,1,4
6,3,2,40,9-3-6=1,1,1.191220748,1,9,2,3
6,3,2,41,7-3-4=1,1,1.350847839,1,9,1,3
6,3,2,42,9-3-1=4,1,1.780283567,1,9,2,3
6,3,2,43,8-5-3=0,2,1.510707889,1,9,2,3
6,3,2,44,8-3-4=2,1,1.599717655,1,10,2,4
6,3,2,45,5-2-3=0,2,1.337850382,1,9,2,3
6,3,2,46,8-2-5=0,1,1.314981908,1,9,1,3
6,3,2,47,8-3-3=2,2,1.941139603,1,10,1,4
6,3,2,48,9-1-3=5,2,1.902938667,1,10,2,4
6,3,2,49,8-6-2=1,1,1.469330601,1,10,1,4
6,3,2,50,9-2-1=5,1,1.728429841,1,9,1,3
6,3,2,51,8-2-2=4,2,1.393929168,0,10,2,3
6,3,2,52,6-2-4=0,2,1.465206019,1,10,2,4
6,4,2,1,5-1-1=3,2,1.629008593,1,10,1,4
6,4,2,2,8-1-5=3,1,1.586376773,1,10,2,4
6,4,2,3,7-2-4=0,1,1.379940653,1,10,1,4
6,4,2,4,9-2-2=5,2,2.012833144,1,9,2,3
6,4,2,5,9-2-7=1,1,1.815238264,1,9,1,3
6,4,2,6,7-4-2=1,2,1.505338539,1,9,2,3
6,4,2,7,9-5-1=3,2,1.69836262,1,10,1,4
6,4,2,8,7-3-3=2,1,1.798179707,0,10,1,3
6,4,2,9,8-2-6=0,2,1.82125373,1,9,1,3
6,4,2,10,6-1-2=4,1,1.441744712,1,10,1,4
6,4,2,11,7-5-2=0,2,1.436148602,1,10,2,4
6,4,2,12,9-2-6=1,2,1.724050905,1,10,1,4
6,4,2,13,7-2-5=0,2,1.426729724,1,10,1,4
6,4,2,14,9-5-3=0,1,1.743934686,1,9,1,3
6,4,2,15,9-3-4=2,2,1.476636229,1,9,1,3
6,4,2,16,9-2-3=4,2,1.803976675,1,9,2,3
6,4,2,17,8-1-3=5,1,1.647279914,1,9,1,3
6,4,2,18,6-2-3=0,1,1.728296479,1,10,2,4
6,4,2,19,8-5-2=0,1,1.496654313,1,9,1,3
6,4,2,20,7-1-2=3,1,1.541012268,1,9,2,3
6,4,2,21,9-3-2=5,1,1.704541417,1,9,2,3
6,4,2,22,7-2-1=3,1,1.859154392,1,10,2,4
6,4,2,23,7-1-1=5,2,2.205106554,1,10,1,4
6,4,2,24,9-4-5=1,1,1.708475558,1,10,2,4
6,4,2,25,7-1-4=3,1,1.656351635,1,10,1,4
6,4,2,26,8-1-4=2,1,2.216593386,1,9,2,3
6,4,2,27,8-3-5=0,2,2.212301719,1,9,1,3
6,4,2,28,8-2-1=4,1,1.743213367,1,10,1,4
6,4,2,29,6-1-1=4,2,1.640249953,1,10,1,4
6,4,2,30,9-1-5=3,2,1.632271423,1,10,1,4
6,4,2,31,9-1-6=2,2,1.812539509,1,10,2,4
6,4,2,32,8-1-2=5,2,2.638413596,1,9,1,3
6,4,2,33,9-6-2=1,2,2.067547797,1,9,1,3
6,4,2,34,9-1-2=5,1,1.268229747,1,9,1,3
6,4,2,35,7-2-2=3,2,1.427974666,1,9,2,3
6,4,2,36,9-4-4=1,2,1.554064396,1,9,2,3
6,4,2,37,9-3-5=1,2,2.831849532,1,10,1,4
6,4,2,38,8-1-1=5,1,1.552257567,1,10,1,4
6,4,2,39,6-4-2=1,1,1.714275193,1,10,2,4
6,4,2,40,9-3-6=1,1,1.502474519,1,10,1,4
6,4,2,41,7-3-4=1,1,1.748952545,1,9,1,3
6,4,2,42,9-3-1=4,1,1.540925029,1,10,1,4
6,4,2,43,8-5-3=0,2,1.428643283,1,9,2,3
6,4,2,44,8-3-4=2,1,1.316767921,1,9,1,3
6,4,2,45,5-2-3=0,2,1.435331831,1,9,1,3
6,4,2,46,8-2-5=0,1,1.35415215,1,9,2,3
6,4,2,47,8-3-3=2,2,1.529533486,1,10,1,4
6,4,2,48,9-1-3=5,2,1.88961065,1,10,2,4
6,4,2,49,8-6-2=1,1,1.770957646,1,10,1,4
6,4,2,50,9-2-1=5,1,1.887207757,1,9,2,3
6,4,2,51,8-2-2=4,2,2.912244953,1,9,1,3
6,4,2,52,6-2-4=0,2,1.740906655,1,10,1,4
7,1,1,1,9-1-5=2,2,1.781775102,1,9,2,3
7,1,1,2,9-4-4=2,2,1.560746906,1,9,1,3
7,1,1,3,9-4-5=0,1,1.254496046,1,9,1,3
7,1,1,4,9-6-2=0,2,1.383329532,1,9,2,3
7,1,1,5,7-4-2=0,2,1.177681363,1,9,1,3
7,1,1,6,9-1-2=6,1,1.267086904,1,9,1,3
7,1,1,7,7-1-2=4,1,1.313365366,1,10,1,4
7,1,1,8,7-3-4=0,1,1.344532414,1,9,1,3
7,1,1,9,7-3-3=1,1,1.490181208,1,10,1,4
7,1,1,10,8-3-5=1,2,1.605509556,0,10,2,3
7,1,1,11,6-2-4=1,2,1.843073869,1,9,2,3
7,1,1,12,8-2-2=5,2,1.31078628,1,9,1,3
7,1,1,13,9-2-3=5,2,1.26710886,1,9,1,3
7,1,1,14,6-4-2=0,1,2.295757605,1,9,2,3
7,1,1,15,9-5-1=2,2,1.481317381,1,9,1,3
7,1,1,16,6-1-1=3,2,1.467425823,1,10,2,4
7,1,1,17,7-1-1=4,2,1.585568703,1,10,2,4
7,1,1,18,9-5-3=1,1,1.205568395,1,10,1,4
7,1,1,19,8-5-3=1,2,1.229241932,1,10,1,4
7,1,1,20,9-3-5=0,2,1.194117287,1,10,1,4
7,1,1,21,8-1-4=3,1,1.469100087,1,10,2,4
7,1,1,22,9-3-4=1,2,1.780827226,1,9,1,3
7,1,1,23,8-1-5=2,1,1.97036888,1,10,2,4
7,1,1,24,7-2-1=4,1,2.497591712,1,10,1,4
7,1,1,25,8-3-3=1,2,1.456124935,1,9,1,3
7,1,1,26,8-1-2=6,2,1.266929698,1,9,1,3
7,1,1,27,8-5-2=1,1,1.322472149,1,10,2,4
7,1,1,28,7-2-4=1,1,1.378981874,1,10,1,4
7,1,1,29,7-2-2=4,2,1.559754249,1,10,2,4
7,1,1,30,5-2-3=1,2,1.436547854,1,9,1,3
7,1,1,31,9-1-6=3,2,1.085540292,1,10,2,4
7,1,1,32,9-1-3=4,2,1.141736176,1,10,1,4
7,1,1,33,9-2-2=4,2,1.361590068,1,10,1,4
7,1,1,34,7-2-5=1,2,1.655170614,1,9,2,3
7,1,1,35,9-3-2=4,1,1.705467488,1,9,1,3
7,1,1,36,9-2-6=0,2,1.181176513,1,9,1,3
7,1,1,37,9-3-1=5,1,1.363640461,1,9,2,3
7,1,1,38,7-5-2=1,2,1.399422294,1,10,2,4
7,1,1,39,8-2-5=1,1,1.599188221,1,9,1,3
7,1,1,40,6-1-2=3,1,2.851021128,1,9,2,3
7,1,1,41,5-1-1=2,2,1.450369249,1,9,2,3
7,1,1,42,9-2-1=6,1,1.446708867,1,9,2,3
7,1,1,43,8-6-2=0,1,1.276526782,1,9,1,3
7,1,1,44,9-3-6=0,1,1.35692904,1,10,1,4
7,1,1,45,9-2-7=0,1,1.338104827,1,9,1,3
7,1,1,46,8-1-1=6,1,1.802334769,1,9,2,3
7,1,1,47,8-2-6=1,2,1.494848693,1,9,1,3
7,1,1,48,8-3-4=1,1,1.472794368,1,9,2,3
7,1,1,49,8-2-1=5,1,1.823045864,1,9,1,3
7,1,1,50,6-2-3=1,1,1.362575584,1,10,1,4
7,1,1,51,7-1-4=2,1,1.781838964,1,10,1,4
7,1,1,52,8-1-3=4,1,1.65528549,1,10,1,4
7,2,1,1,9-1-5=2,2,2.335910402,1,9,2,3
7,2,1,2,9-4-4=2,2,1.252863617,1,10,1,4
7,2,1,3,9-4-5=0,1,1.255113446,1,10,2,4
7,2,1,4,9-6-2=0,2,1.427180324,1,10,2,4
7,2,1,5,7-4-2=0,2,1.244408555,1,10,1,4
7,2,1,6,9-1-2=6,1,1.293531338,1,9,2,3
7,2,1,7,7-1-2=4,1,1.527428212,1,9,1,3
7,2,1,8,7-3-4=0,1,1.88743571,1,10,1,4
7,2,1,9,7-3-3=1,1,1.228903717,1,10,1,4
7,2,1,10,8-3-5=1,2,2.038002637,1,10,2,4
7,2,1,11,6-2-4=1,2,1.517343505,1,9,2,3
7,2,1,12,8-2-2=5,2,1.42011132,1,10,1,4
7,2,1,13,9-2-3=5,2,1.377897603,1,10,1,4
7,2,1,14,6-4-2=0,1,1.306583198,1,9,2,3
7,2,1,15,9-5-1=2,2,1.068779117,1,10,1,4
7,2,1,16,6-1-1=3,2,1.446823968,1,10,2,4
7,2,1,17,7-1-1=4,2,1.509530751,1,9,1,3
7,2,1,18,9-5-3=1,1,2.52199889,1,10,2,4
7,2,1,19,8-5-3=1,2,1.551127659,1,9,2,3
7,2,1,20,9-3-5=0,2,1.182145679,1,9,1,3
7,2,1,21,8-1-4=3,1,1.137708085,1,10,1,4
7,2,1,22,9-3-4=1,2,1.673451066,1,9,2,3
7,2,1,23,8-1-5=2,1,1.363426722,1,10,1,4
7,2,1,24,7-2-1=4,1,1.622657082,1,10,2,4
7,2,1,25,8-3-3=1,2,1.123102239,1,9,1,3
7,2,1,26,8-1-2=6,2,1.455291027,1,9,2,3
7,2,1,27,8-5-2=1,1,1.238898612,1,9,1,3
7,2,1,28,7-2-4=1,1,1.951640111,1,9,2,3
7,2,1,29,7-2-2=4,2,1.53636885,1,9,1,3
7,2,1,30,5-2-3=1,2,1.36188643,1,10,1,4
7,2,1,31,9-1-6=3,2,1.509207976,1,9,1,3
7,2,1,32,9-1-3=4,2,1.804466141,1,10,1,4
7,2,1,33,9-2-2=4,2,1.200180407,1,10,1,4
7,2,1,34,7-2-5=1,2,1.56379877,1,9,1,3
7,2,1,35,9-3-2=4,1,1.649896998,1,9,2,3
7,2,1,36,9-2-6=0,2,1.118519649,1,10,1,4
7,2,1,37,9-3-1=5,1,1.203306945,1,9,1,3
7,2,1,38,7-5-2=1,2,2.297140856,1,10,2,4
7,2,1,39,8-2-5=1,1,1.508276935,1,9,1,3
7,2,1,40,6-1-2=3,1,1.430999688,1,9,1,3
7,2,1,41,5-1-1=2,2,1.545088642,1,10,2,4
7,2,1,42,9-2-1=6,1,1.200801734,1,9,2,3
7,2,1,43,8-6-2=0,1,1.365473688,1,9,1,3
7,2,1,44,9-3-6=0,1,2.015793698,1,10,2,4
7,2,1,45,9-2-7=0,1,1.828707058,1,9,2,3
7,2,1,46,8-1-1=6,1,1.226953361,1,10,1,4
7,2,1,47,8-2-6=1,2,1.469355412,1,10,2,4
7,2,1,48,8-3-4=1,1,1.489544502,1,10,1,4
7,2,1,49,8-2-1=5,1,1.797989105,1,10,2,4
7,2,1,50,6-2-3=1,1,1.495301599,1,10,1,4
7,2,1,51,7-1-4=2,1,2.479459757,1,10,2,4
7,2,1,52,8-1-3=4,1,1.253525229,1,9,1,3
7,3,2,1,9-3-5=0,2,1.963519773,1,10,2,4
7,3,2,2,9-4-4=2,2,2.586026869,1,9,1,3
7,3,2,3,8-2-6=1,2,1.839471092,1,9,2,3
7,3,2,4,7-1-2=4,1,1.654928874,1,10,2,4
7,3,2,5,7-5-2=1,2,1.955958764,1,10,2,4
7,3,2,6,7-3-4=0,1,1.875528509,1,10,1,4
7,3,2,7,9-5-3=1,1,2.09590246,1,9,1,3
7,3,2,8,9-1-3=4,2,2.200557214,1,9,1,3
7,3,2,9,8-6-2=0,1,2.062928912,1,9,2,3
7,3,2,10,7-2-4=1,1,1.824770027,1,9,1,3
7,3,2,11,8-1-5=2,1,2.401307174,1,10,2,4
7,3,2,12,9-4-5=0,1,2.111265889,1,10,1,4
7,3,2,13,9-3-2=4,1,1.852025612,1,10,2,4
7,3,2,14,6-2-3=1,1,1.533689372,1,10,2,4
7,3,2,15,7-1-4=2,1,1.812933479,1,10,1,4
7,3,2,16,9-2-7=0,1,1.851181953,1,9,1,3
7,3,2,17,9-6-2=0,2,2.012803085,1,9,2,3
7,3,2,18,8-2-2=5,2,1.696635048,1,10,2,4
7,3,2,19,8-3-3=1,2,2.153277108,0,9,1,4
7,3,2,20,9-1-2=6,1,2.008965795,1,10,1,4
7,3,2,21,8-1-1=6,1,2.172028265,1,10,1,4
7,3,2,22,8-1-2=6,2,2.091425067,1,10,2,4
7,3,2,23,5-2-3=1,2,2.196244814,1,9,1,3
7,3,2,24,9-3-4=1,2,1.958153474,1,9,1,3
7,3,2,25,7-1-1=4,2,1.964275219,1,9,1,3
7,3,2,26,9-3-6=0,1,1.908377266,1,9,2,3
7,3,2,27,7-3-3=1,1,1.876960547,1,9,1,3
7,3,2,28,7-2-2=4,2,2.042891513,1,10,1,4
7,3,2,29,8-5-3=1,2,2.316120891,1,10,2,4
7,3,2,30,8-2-5=1,1,1.726451951,1,10,2,4
7,3,2,31,9-1-5=2,2,1.399193127,1,10,1,4
7,3,2,32,9-5-1=2,2,1.87784098,1,9,2,3
7,3,2,33,6-2-4=1,2,2.182338798,1,9,2,3
7,3,2,34,9-1-6=3,2,1.832354648,1,10,1,4
7,3,2,35,6-4-2=0,1,2.46351,1,9,2,3
7,3,2,36,9-2-2=4,2,1.725248666,1,9,1,3
7,3,2,37,6-1-2=3,1,1.964317456,1,9,1,3
7,3,2,38,8-1-3=4,1,2.336380738,1,9,1,3
7,3,2,39,8-2-1=5,1,2.117193281,1,10,2,4
7,3,2,40,5-1-1=2,2,1.774928972,1,10,1,4
7,3,2,41,7-4-2=0,2,2.013665287,1,9,1,3
7,3,2,42,6-1-1=3,2,1.918931067,1,9,1,3
7,3,2,43,7-2-5=1,2,1.861413148,1,9,1,3
7,3,2,44,8-5-2=1,1,1.672259633,1,9,2,3
7,3,2,45,8-3-5=1,2,1.498139035,1,9,2,3
7,3,2,46,9-3-1=5,1,1.962179974,1,10,1,4
7,3,2,47,8-3-4=1,1,1.659398394,1,9,2,3
7,3,2,48,9-2-3=5,2,1.364048147,1,10,2,4
7,3,2,49,9-2-1=6,1,1.446043742,1,9,1,3
7,3,2,50,9-2-6=0,2,1.527115349,1,9,2,3
7,3,2,51,8-1-4=3,1,1.731424183,1,10,1,4
7,3,2,52,7-2-1=4,1,1.852592502,1,9,2,3
7,4,2,1,9-3-5=0,2,1.668668873,1,9,2,3
7,4,2,2,9-4-4=2,2,1.776266295,1,10,1,4
7,4,2,3,8-2-6=1,2,1.479100963,1,9,1,3
7,4,2,4,7-1-2=4,1,1.914236609,1,9,1,3
7,4,2,5,7-5-2=1,2,1.526578026,1,9,1,3
7,4,2,6,7-3-4=0,1,1.437014435,1,9,1,3
7,4,2,7,9-5-3=1,1,1.774095474,1,10,1,4
7,4,2,8,9-1-3=4,2,2.126584921,1,9,2,3
7,4,2,9,8-6-2=0,1,1.528347564,1,9,1,3
7,4,2,10,7-2-4=1,1,1.384611301,1,9,2,3
7,4,2,11,8-1-5=2,1,1.721869847,1,10,2,4
7,4,2,12,9-4-5=0,1,1.94453621,1,10,1,4
7,4,2,13,9-3-2=4,1,1.68888985,1,9,1,3
7,4,2,14,6-2-3=1,1,1.543507581,1,10,2,4
7,4,2,15,7-1-4=2,1,1.433890177,1,10,1,4
7,4,2,16,9-2-7=0,1,1.55251164,1,10,2,4
7,4,2,17,9-6-2=0,2,1.418660047,1,9,2,3
7,4,2,18,8-2-2=5,2,1.288130559,1,9,2,3
7,4,2,19,8-3-3=1,2,1.345490794,1,10,2,4
7,4,2,20,9-1-2=6,1,1.486358907,1,10,2,4
7,4,2,21,8-1-1=6,1,1.867232817,1,9,2,3
7,4,2,22,8-1-2=6,2,1.554528904,1,9,2,3
7,4,2,23,5-2-3=1,2,1.548740307,0,9,1,4
7,4,2,24,9-3-4=1,2,1.971624341,1,10,2,4
7,4,2,25,7-1-1=4,2,1.66652758,1,10,2,4
7,4,2,26,9-3-6=0,1,1.617822986,1,10,2,4
7,4,2,27,7-3-3=1,1,1.661161852,1,10,1,4
7,4,2,28,7-2-2=4,2,1.482795944,1,10,1,4
7,4,2,29,8-5-3=1,2,1.537528137,1,10,2,4
7,4,2,30,8-2-5=1,1,1.767631948,1,9,1,3
7,4,2,31,9-1-5=2,2,1.568029032,1,10,2,4
7,4,2,32,9-5-1=2,2,1.534511343,1,10,2,4
7,4,2,33,6-2-4=1,2,1.388779214,1,9,2,3
7,4,2,34,9-1-6=3,2,1.192542128,1,10,2,4
7,4,2,35,6-4-2=0,1,1.768856698,1,10,1,4
7,4,2,36,9-2-2=4,2,1.254550792,1,9,2,3
7,4,2,37,6-1-2=3,1,1.454560103,1,9,1,3
7,4,2,38,8-1-3=4,1,1.432623901,1,9,2,3
7,4,2,39,8-2-1=5,1,1.391585565,1,10,2,4
7,4,2,40,5-1-1=2,2,1.457956476,1,10,2,4
7,4,2,41,7-4-2=0,2,1.375238588,1,10,2,4
7,4,2,42,6-1-1=3,2,1.77781939,1,10,1,4
7,4,2,43,7-2-5=1,2,1.722893063,1,10,2,4
7,4,2,44,8-5-2=1,1,1.639714589,1,10,2,4
7,4,2,45,8-3-5=1,2,1.57832656,1,9,2,3
7,4,2,46,9-3-1=5,1,2.060949257,1,9,2,3
7,4,2,47,8-3-4=1,1,1.936823558,1,9,1,3
7,4,2,48,9-2-3=5,2,1.325035879,1,10,1,4
7,4,2,49,9-2-1=6,1,1.516378259,1,10,2,4
7,4,2,50,9-2-6=0,2,1.964941714,1,10,1,4
7,4,2,51,8-1-4=3,1,2.139875467,1,9,2,3
7,4,2,52,7-2-1=4,1,2.432356277,1,10,1,4
8,1,1,1,8-6-2=0,1,1.435288428,1,9,2,3
8,1,1,2,9-2-2=4,2,3.026106979,1,9,1,3
8,1,1,3,6-2-3=1,1,1.564440559,1,9,2,3
8,1,1,4,8-1-3=4,1,2.23777303,1,9,2,3
8,1,1,5,7-1-2=4,1,3.426369546,1,9,1,3
8,1,1,6,7-2-2=4,2,1.271358158,1,10,2,4
8,1,1,7,6-4-2=0,1,2.389295628,1,10,1,4
8,1,1,8,7-2-5=1,2,1.117123626,1,10,1,4
8,1,1,9,6-1-2=3,1,2.111225089,1,10,2,4
8,1,1,10,7-3-4=0,1,1.888716666,1,10,2,4
8,1,1,11,9-2-7=0,1,2.083983669,1,9,2,3
8,1,1,12,8-2-5=1,1,2.408663004,1,10,2,4
8,1,1,13,8-1-5=2,1,2.112977969,1,10,2,4
8,1,1,14,9-2-6=0,2,2.068405173,0,10,2,3
8,1,1,15,9-3-6=0,1,1.448120338,1,9,2,3
8,1,1,16,8-5-2=1,1,1.275237606,1,9,2,3
8,1,1,17,8-2-6=1,2,1.418853117,1,10,2,4
8,1,1,18,6-1-1=3,2,1.339838031,1,9,2,3
8,1,1,19,9-3-4=1,2,3.398383236,0,9,1,4
8,1,1,20,7-2-4=1,1,1.908984425,1,9,1,3
8,1,1,21,8-2-1=5,1,1.51257362,1,9,2,3
8,1,1,22,7-1-4=2,1,2.302442767,1,9,1,3
8,1,1,23,9-5-3=1,1,1.573057135,1,10,2,4
8,1,1,24,7-2-1=4,1,1.560297224,1,9,2,3
8,1,1,25,7-4-2=0,2,1.624136541,1,9,2,3
8,1,1,26,8-3-5=1,2,2.862464949,1,10,1,4
8,1,1,27,8-1-2=6,2,1.644637587,1,10,1,4
8,1,1,28,7-5-2=1,2,2.075864655,1,10,2,4
8,1,1,29,8-3-3=1,2,1.912217065,1,10,2,4
8,1,1,30,9-2-3=5,2,1.235262056,1,9,2,3
8,1,1,31,8-2-2=5,2,1.595580655,1,9,1,3
8,1,1,32,9-3-5=0,2,1.20049178,1,10,2,4
8,1,1,33,9-3-2=4,1,2.572813461,1,9,1,3
8,1,1,34,8-5-3=1,2,2.506643678,1,10,2,4
8,1,1,35,9-6-2=0,2,1.470056413,1,10,2,4
8,1,1,36,7-1-1=4,2,3.180592348,1,9,2,3
8,1,1,37,7-3-3=1,1,3.289793563,1,9,1,3
8,1,1,38,5-1-1=2,2,2.436903589,1,10,2,4
8,1,1,39,9-1-3=4,2,1.686930368,1,10,2,4
8,1,1,40,8-1-4=3,1,1.451711779,1,10,2,4
8,1,1,41,9-2-1=6,1,1.491373086,1,10,2,4
8,1,1,42,8-1-1=6,1,1.246558553,1,10,2,4
8,1,1,43,9-3-1=5,1,1.398726026,1,9,2,3
8,1,1,44,8-3-4=1,1,1.339296091,1,10,2,4
8,1,1,45,9-1-6=3,2,1.41677403,1,9,1,3
8,1,1,46,9-4-5=0,1,1.621367962,1,9,1,3
8,1,1,47,5-2-3=1,2,1.596828554,1,9,1,3
8,1,1,48,9-1-5=2,2,1.450375776,1,10,1,4
8,1,1,49,9-5-1=2,2,1.179062041,1,10,2,4
8,1,1,50,6-2-4=1,2,1.246241714,1,9,2,3
8,1,1,51,9-4-4=2,2,1.324881931,1,9,2,3
8,1,1,52,9-1-2=6,1,1.16239263,1,9,1,3
8,2,1,1,8-6-2=0,1,1.710253952,1,9,1,3
8,2,1,2,9-2-2=4,2,1.375602464,1,10,1,4
8,2,1,3,6-2-3=1,1,3.084281671,1,10,1,4
8,2,1,4,8-1-3=4,1,1.641559607,1,10,2,4
8,2,1,5,7-1-2=4,1,1.375814868,1,10,2,4
8,2,1,6,7-2-2=4,2,1.434137436,1,10,2,4
8,2,1,7,6-4-2=0,1,3.537971209,0,9,2,4
8,2,1,8,7-2-5=1,2,2.349052511,1,10,1,4
8,2,1,9,6-1-2=3,1,1.922232741,1,10,2,4
8,2,1,10,7-3-4=0,1,1.053328558,1,10,2,4
8,2,1,11,9-2-7=0,1,3.044403352,1,10,1,4
8,2,1,12,8-2-5=1,1,1.173098063,1,9,2,3
8,2,1,13,8-1-5=2,1,5.125495813,1,10,1,4
8,2,1,14,9-2-6=0,2,2.107436398,1,10,2,4
8,2,1,15,9-3-6=0,1,1.50933741,1,9,1,3
8,2,1,16,8-5-2=1,1,2.813700256,1,10,1,4
8,2,1,17,8-2-6=1,2,1.859420236,1,10,1,4
8,2,1,18,6-1-1=3,2,1.909922471,0,10,2,3
8,2,1,19,9-3-4=1,2,1.030251638,1,9,2,3
8,2,1,20,7-2-4=1,1,0.788082397,1,9,2,3
8,2,1,21,8-2-1=5,1,1.859841872,1,9,1,3
8,2,1,22,7-1-4=2,1,3.726496945,1,10,1,4
8,2,1,23,9-5-3=1,1,1.23147236,1,10,2,4
8,2,1,24,7-2-1=4,1,0.849553271,1,10,2,4
8,2,1,25,7-4-2=0,2,2.772640431,1,9,1,3
8,2,1,26,8-3-5=1,2,1.855188183,1,10,2,4
8,2,1,27,8-1-2=6,2,3.364655844,1,9,1,3
8,2,1,28,7-5-2=1,2,1.492845514,1,10,2,4
8,2,1,29,8-3-3=1,2,1.074216941,1,9,2,3
8,2,1,30,9-2-3=5,2,0.297838723,1,9,1,3
8,2,1,31,8-2-2=5,2,1.314786727,1,10,2,4
8,2,1,32,9-3-5=0,2,1.915964832,1,10,1,4
8,2,1,33,9-3-2=4,1,1.944919273,1,10,2,4
8,2,1,34,8-5-3=1,2,1.340347459,1,10,1,4
8,2,1,35,9-6-2=0,2,1.425222979,1,9,2,3
8,2,1,36,7-1-1=4,2,1.945430943,1,9,1,3
8,2,1,37,7-3-3=1,1,1.135537297,1,10,2,4
8,2,1,38,5-1-1=2,2,2.002917012,1,10,1,4
8,2,1,39,9-1-3=4,2,2.395215729,1,9,1,3
8,2,1,40,8-1-4=3,1,1.58011749,1,10,1,4
8,2,1,41,9-2-1=6,1,1.584058869,1,10,2,4
8,2,1,42,8-1-1=6,1,1.892786686,1,10,1,4
8,2,1,43,9-3-1=5,1,1.52888444,1,10,1,4
8,2,1,44,8-3-4=1,1,1.803124683,1,10,1,4
8,2,1,45,9-1-6=3,2,2.204880535,1,9,1,3
8,2,1,46,9-4-5=0,1,1.887697318,1,10,1,4
8,2,1,47,5-2-3=1,2,1.709081017,1,10,2,4
8,2,1,48,9-1-5=2,2,2.331723821,1,9,2,3
8,2,1,49,9-5-1=2,2,1.202204319,1,10,2,4
8,2,1,50,6-2-4=1,2,2.365401422,1,9,2,3
8,2,1,51,9-4-4=2,2,2.425091814,1,10,2,4
8,2,1,52,9-1-2=6,1,1.749376983,1,10,1,4
8,3,2,1,5-1-1=2,2,4.601043095,1,10,1,4
8,3,2,2,6-4-2=0,1,1.859013935,1,10,2,4
8,3,2,3,9-1-2=6,1,2.464714311,1,9,1,3
8,3,2,4,8-1-3=4,1,1.564413656,1,9,1,3
8,3,2,5,9-1-5=2,2,1.942787115,1,10,2,4
8,3,2,6,9-3-4=1,2,1.480575054,1,9,1,3
8,3,2,7,9-3-5=0,2,1.34801521,1,10,1,4
8,3,2,8,9-3-2=4,1,1.564161179,1,9,1,3
8,3,2,9,9-6-2=0,2,1.307110489,1,9,2,3
8,3,2,10,9-2-2=4,2,1.183461032,1,9,2,3
8,3,2,11,8-6-2=0,1,1.242424818,1,9,2,3
8,3,2,12,7-3-3=1,1,1.437078492,1,9,2,3
8,3,2,13,6-2-3=1,1,1.314552752,1,10,1,4
8,3,2,14,6-1-2=3,1,2.583424894,1,10,2,4
8,3,2,15,7-1-2=4,1,1.861482408,1,9,2,3
8,3,2,16,8-3-5=1,2,1.447534412,1,9,2,3
8,3,2,17,9-2-6=0,2,1.560364527,1,9,2,3
8,3,2,18,9-2-7=0,1,1.420683688,1,10,1,4
8,3,2,19,8-3-4=1,1,1.990530977,1,10,1,4
8,3,2,20,7-2-1=4,1,1.715754272,1,10,1,4
8,3,2,21,8-2-5=1,1,1.376526323,1,9,1,3
8,3,2,22,9-2-1=6,1,1.847441341,1,10,2,4
8,3,2,23,8-2-1=5,1,1.677411892,1,9,2,3
8,3,2,24,6-1-1=3,2,1.250554102,1,10,2,4
8,3,2,25,7-2-5=1,2,1.416918844,1,9,2,3
8,3,2,26,7-3-4=0,1,1.255189684,1,9,2,3
8,3,2,27,9-4-5=0,1,1.101321782,1,9,1,3
8,3,2,28,9-3-6=0,1,1.17045288,1,9,1,3
8,3,2,29,8-1-5=2,1,1.375523235,1,10,2,4
8,3,2,30,8-1-4=3,1,1.387079741,1,10,2,4
8,3,2,31,9-2-3=5,2,1.450331391,1,10,2,4
8,3,2,32,8-2-2=5,2,1.049773285,1,10,2,4
8,3,2,33,8-2-6=1,2,1.374656386,1,9,2,3
8,3,2,34,7-1-1=4,2,1.142803487,1,9,2,3
8,3,2,35,8-1-1=6,1,1.52982281,1,10,1,4
8,3,2,36,6-2-4=1,2,2.01178704,1,9,1,3
8,3,2,37,9-1-6=3,2,1.348193108,1,10,1,4
8,3,2,38,9-3-1=5,1,1.451733866,1,10,1,4
8,3,2,39,8-5-2=1,1,1.102432388,1,10,1,4
8,3,2,40,8-1-2=6,2,1.652949746,1,10,1,4
8,3,2,41,9-1-3=4,2,1.377018438,1,9,2,3
8,3,2,42,5-2-3=1,2,1.579461574,1,10,2,4
8,3,2,43,9-5-1=2,2,1.622926211,1,10,1,4
8,3,2,44,7-2-4=1,1,1.392515921,1,10,2,4
8,3,2,45,8-5-3=1,2,2.097407103,1,9,2,3
8,3,2,46,9-4-4=2,2,1.564689579,1,9,2,3
8,3,2,47,7-2-2=4,2,1.050294451,1,9,1,3
8,3,2,48,7-4-2=0,2,1.261847007,1,10,2,4
8,3,2,49,8-3-3=1,2,1.190364016,1,9,1,3
8,3,2,50,7-5-2=1,2,1.632408081,1,10,2,4
8,3,2,51,9-5-3=1,1,1.376717068,1,9,2,3
8,3,2,52,7-1-4=2,1,1.67856862,1,10,1,4
8,4,2,1,5-1-1=2,2,2.069851676,1,10,1,4
8,4,2,2,6-4-2=0,1,1.772255058,1,9,1,3
8,4,2,3,9-1-2=6,1,1.242970731,1,9,1,3
8,4,2,4,8-1-3=4,1,1.697056597,1,10,2,4
8,4,2,5,9-1-5=2,2,1.326144953,1,9,2,3
8,4,2,6,9-3-4=1,2,1.980566927,1,10,2,4
8,4,2,7,9-3-5=0,2,2.508561717,1,10,2,4
8,4,2,8,9-3-2=4,1,1.394189489,1,10,1,4
8,4,2,9,9-6-2=0,2,1.290178646,1,9,1,3
8,4,2,10,9-2-2=4,2,1.336426963,1,9,2,3
8,4,2,11,8-6-2=0,1,1.453717347,0,9,2,4
8,4,2,12,7-3-3=1,1,1.467061559,1,10,1,4
8,4,2,13,6-2-3=1,1,1.385902878,1,10,1,4
8,4,2,14,6-1-2=3,1,1.348800335,1,9,1,3
8,4,2,15,7-1-2=4,1,1.859422558,1,10,2,4
8,4,2,16,8-3-5=1,2,1.90112597,1,10,1,4
8,4,2,17,9-2-6=0,2,1.115555254,1,9,1,3
8,4,2,18,9-2-7=0,1,1.212485663,1,9,2,3
8,4,2,19,8-3-4=1,1,1.15650246,1,9,1,3
8,4,2,20,7-2-1=4,1,1.075583797,0,9,2,4
8,4,2,21,8-2-5=1,1,1.336810816,1,10,1,4
8,4,2,22,9-2-1=6,1,0.875892551,1,9,1,3
8,4,2,23,8-2-1=5,1,1.210891475,1,10,1,4
8,4,2,24,6-1-1=3,2,1.619923013,1,9,2,3
8,4,2,25,7-2-5=1,2,1.365007061,1,10,1,4
8,4,2,26,7-3-4=0,1,1.493342038,1,9,1,3
8,4,2,27,9-4-5=0,1,2.115947143,1,10,1,4
8,4,2,28,9-3-6=0,1,2.121842549,1,10,1,4
8,4,2,29,8-1-5=2,1,1.931610873,1,10,2,4
8,4,2,30,8-1-4=3,1,1.486170381,1,10,2,4
8,4,2,31,9-2-3=5,2,1.499298254,1,10,1,4
8,4,2,32,8-2-2=5,2,1.492884515,1,10,2,4
8,4,2,33,8-2-6=1,2,1.218179301,1,10,1,4
8,4,2,34,7-1-1=4,2,1.944540901,1,9,1,3
8,4,2,35,8-1-1=6,1,1.245582822,1,9,1,3
8,4,2,36,6-2-4=1,2,1.258342158,1,10,2,4
8,4,2,37,9-1-6=3,2,4.302800056,1,9,2,3
8,4,2,38,9-3-1=5,1,1.321299774,1,10,1,4
8,4,2,39,8-5-2=1,1,1.362459558,1,10,2,4
8,4,2,40,8-1-2=6,2,1.330203623,1,9,2,3
8,4,2,41,9-1-3=4,2,1.316465129,1,9,1,3
8,4,2,42,5-2-3=1,2,2.072507265,1,10,1,4
8,4,2,43,9-5-1=2,2,1.462851646,1,9,2,3
8,4,2,44,7-2-4=1,1,1.673302765,1,10,1,4
8,4,2,45,8-5-3=1,2,2.141408104,1,10,1,4
8,4,2,46,9-4-4=2,2,1.906407727,1,9,2,3
8,4,2,47,7-2-2=4,2,2.243593243,1,10,1,4
8,4,2,48,7-4-2=0,2,1.950557451,1,9,1,3
8,4,2,49,8-3-3=1,2,2.585178191,1,9,2,3
8,4,2,50,7-5-2=1,2,1.482530161,1,9,2,3
8,4,2,51,9-5-3=1,1,2.266452861,1,10,2,4
8,4,2,52,7-1-4=2,1,2.127271513,1,10,2,4
9,1,1,1,6-4-2=0,1,0.943698096,1,9,2,3
9,1,1,2,9-4-4=2,2,1.555716941,1,10,1,4
9,1,1,3,9-3-1=5,1,1.142764911,0,10,1,3
9,1,1,4,8-2-5=1,1,1.998740089,1,10,2,4
9,1,1,5,8-1-1=6,1,2.662051067,1,10,2,4
9,1,1,6,7-1-2=4,1,1.556607208,1,9,1,3
9,1,1,7,9-2-7=0,1,1.41867163,1,9,2,3
9,1,1,8,7-2-2=4,2,1.910030657,1,9,2,3
9,1,1,9,8-3-3=1,2,1.293242226,1,10,1,4
9,1,1,10,8-6-2=0,1,1.22969362,1,9,1,3
9,1,1,11,9-3-2=4,1,1.581166408,1,10,1,4
9,1,1,12,6-1-1=3,2,1.405521553,1,9,1,3
9,1,1,13,9-5-3=1,1,1.228538772,1,9,1,3
9,1,1,14,8-3-4=1,1,1.200009104,1,10,2,4
9,1,1,15,9-1-6=3,2,2.014704981,1,9,2,3
9,1,1,16,6-2-4=1,2,1.142984718,1,10,2,4
9,1,1,17,8-5-3=1,2,1.63748415,1,9,1,3
9,1,1,18,7-5-2=1,2,1.142663004,1,10,1,4
9,1,1,19,7-1-4=2,1,1.723735296,1,9,2,3
9,1,1,20,7-2-1=4,1,1.339244261,1,9,1,3
9,1,1,21,9-2-2=4,2,2.547275855,1,10,2,4
9,1,1,22,6-1-2=3,1,1.949189387,1,9,2,3
9,1,1,23,9-3-4=1,2,2.018764057,1,10,2,4
9,1,1,24,7-3-4=0,1,1.469375554,1,10,1,4
9,1,1,25,8-1-4=3,1,1.4604542,1,9,1,3
9,1,1,26,9-2-1=6,1,1.179319578,1,10,2,4
9,1,1,27,9-6-2=0,2,1.313555378,1,10,1,4
9,1,1,28,9-4-5=0,1,1.228846917,1,9,1,3
9,1,1,29,7-2-4=1,1,1.419829164,1,10,2,4
9,1,1,30,9-3-5=0,2,1.119999515,1,10,2,4
9,1,1,31,8-2-2=5,2,1.646573805,1,9,2,3
9,1,1,32,7-4-2=0,2,1.380108261,1,9,1,3
9,1,1,33,9-2-3=5,2,2.552119491,1,10,1,4
9,1,1,34,5-2-3=1,2,1.931153008,1,9,2,3
9,1,1,35,9-1-5=2,2,2.657973914,1,10,2,4
9,1,1,36,8-2-1=5,1,1.115502419,1,9,2,3
9,1,1,37,8-1-5=2,1,1.612536632,0,9,2,4
9,1,1,38,8-3-5=1,2,4.129959701,1,9,1,3
9,1,1,39,9-1-3=4,2,5.827594526,1,10,2,4
9,1,1,40,5-1-1=2,2,4.040089041,1,10,1,4
9,1,1,41,8-1-3=4,1,2.386376547,1,10,1,4
9,1,1,42,9-3-6=0,1,1.232562123,1,9,1,3
9,1,1,43,9-2-6=0,2,1.401491881,1,10,1,4
9,1,1,44,9-1-2=6,1,1.182910869,1,9,1,3
9,1,1,45,7-1-1=4,2,1.675622392,1,9,2,3
9,1,1,46,8-5-2=1,1,1.158868097,1,10,2,4
9,1,1,47,8-2-6=1,2,1.339663504,1,9,1,3
9,1,1,48,6-2-3=1,1,1.32645689,1,10,1,4
9,1,1,49,9-5-1=2,2,1.947878816,1,9,1,3
9,1,1,50,7-3-3=1,1,1.310039731,1,9,1,3
9,1,1,51,7-2-5=1,2,1.946466927,1,10,1,4
9,1,1,52,8-1-2=6,2,1.116174365,1,9,1,3
9,2,1,1,6-4-2=0,1,1.134464444,1,10,1,4
9,2,1,2,9-4-4=2,2,1.396200075,1,10,2,4
9,2,1,3,9-3-1=5,1,1.998166171,1,10,2,4
9,2,1,4,8-2-5=1,1,1.398955231,1,9,2,3
9,2,1,5,8-1-1=6,1,1.246802359,0,10,2,3
9,2,1,6,7-1-2=4,1,1.707652315,1,9,1,3
9,2,1,7,9-2-7=0,1,1.449693894,1,9,1,3
9,2,1,8,7-2-2=4,2,1.655053741,1,10,1,4
9,2,1,9,8-3-3=1,2,1.925556232,1,9,2,3
9,2,1,10,8-6-2=0,1,1.323374403,1,10,1,4
9,2,1,11,9-3-2=4,1,1.63609035,1,9,2,3
9,2,1,12,6-1-1=3,2,1.314941748,1,10,2,4
9,2,1,13,9-5-3=1,1,3.087152594,1,10,2,4
9,2,1,14,8-3-4=1,1,1.706418479,1,9,1,3
9,2,1,15,9-1-6=3,2,2.171878154,1,10,1,4
9,2,1,16,6-2-4=1,2,1.621718705,1,9,1,3
9,2,1,17,8-5-3=1,2,2.4335838,1,10,1,4
9,2,1,18,7-5-2=1,2,2.25998856,1,9,2,3
9,2,1,19,7-1-4=2,1,2.498835879,1,9,2,3
9,2,1,20,7-2-1=4,1,2.099996923,1,10,2,4
9,2,1,21,9-2-2=4,2,1.254986189,1,9,2,3
9,2,1,22,6-1-2=3,1,1.472641703,1,9,1,3
9,2,1,23,9-3-4=1,2,1.268739193,1,10,1,4
9,2,1,24,7-3-4=0,1,1.753134148,1,9,1,3
9,2,1,25,8-1-4=3,1,1.56286306,1,10,2,4
9,2,1,26,9-2-1=6,1,2.169245988,0,10,1,3
9,2,1,27,9-6-2=0,2,1.47438274,1,10,1,4
9,2,1,28,9-4-5=0,1,1.474177187,1,10,2,4
9,2,1,29,7-2-4=1,1,1.634588458,1,10,1,4
9,2,1,30,9-3-5=0,2,1.641925729,1,10,1,4
9,2,1,31,8-2-2=5,2,1.26778564,1,9,2,3
9,2,1,32,7-4-2=0,2,0.819465814,1,10,1,4
9,2,1,33,9-2-3=5,2,1.230396618,1,9,1,3
9,2,1,34,5-2-3=1,2,1.52993185,1,10,1,4
9,2,1,35,9-1-5=2,2,1.338190862,1,9,1,3
9,2,1,36,8-2-1=5,1,1.579189413,1,10,2,4
9,2,1,37,8-1-5=2,1,1.226301369,1,9,2,3
9,2,1,38,8-3-5=1,2,1.381454832,1,9,2,3
9,2,1,39,9-1-3=4,2,1.757144524,1,10,1,4
9,2,1,40,5-1-1=2,2,3.734120432,1,10,2,4
9,2,1,41,8-1-3=4,1,1.744116764,1,10,1,4
9,2,1,42,9-3-6=0,1,1.198462266,1,10,1,4
9,2,1,43,9-2-6=0,2,2.879822332,1,10,2,4
9,2,1,44,9-1-2=6,1,1.326223291,1,10,1,4
9,2,1,45,7-1-1=4,2,1.163174896,1,10,1,4
9,2,1,46,8-5-2=1,1,2.257169975,1,9,1,3
9,2,1,47,8-2-6=1,2,2.942883973,1,10,2,4
9,2,1,48,6-2-3=1,1,1.69498833,1,9,1,3
9,2,1,49,9-5-1=2,2,1.708054735,1,10,2,4
9,2,1,50,7-3-3=1,1,2.376208085,1,10,2,4
9,2,1,51,7-2-5=1,2,1.70831006,1,9,1,3
9,2,1,52,8-1-2=6,2,1.296795422,1,9,2,3
9,3,2,1,9-2-6=0,2,1.909628152,1,9,2,3
9,3,2,2,9-2-7=0,1,1.813978089,1,9,1,3
9,3,2,3,8-3-3=1,2,2.196506723,1,10,2,4
9,3,2,4,8-1-3=4,1,1.45689023,1,10,1,4
9,3,2,5,9-1-6=3,2,1.778062586,1,10,1,4
9,3,2,6,6-1-1=3,2,1.852356213,1,10,2,4
9,3,2,7,6-4-2=0,1,1.387199003,1,9,1,3
9,3,2,8,9-3-5=0,2,1.508298269,1,10,2,4
9,3,2,9,8-3-4=1,1,1.581013148,1,9,2,3
9,3,2,10,8-2-6=1,2,1.849557323,1,9,2,3
9,3,2,11,8-5-3=1,2,2.015888654,1,9,1,3
9,3,2,12,9-2-1=6,1,1.738829491,1,9,2,3
9,3,2,13,7-4-2=0,2,1.991238569,1,9,1,3
9,3,2,14,7-2-1=4,1,1.460041281,1,9,2,3
9,3,2,15,9-4-5=0,1,1.510903427,1,9,2,3
9,3,2,16,9-2-3=5,2,1.134124909,1,9,2,3
9,3,2,17,9-4-4=2,2,1.720345446,1,10,2,4
9,3,2,18,8-2-2=5,2,1.193988966,1,9,2,3
9,3,2,19,8-2-1=5,1,1.282830977,1,9,2,3
9,3,2,20,9-3-1=5,1,1.293382412,1,9,1,3
9,3,2,21,8-1-4=3,1,1.391076731,1,10,2,4
9,3,2,22,9-5-1=2,2,1.253796994,1,9,2,3
9,3,2,23,9-6-2=0,2,1.758850965,1,10,2,4
9,3,2,24,9-3-2=4,1,1.511869569,1,10,2,4
9,3,2,25,9-2-2=4,2,1.613276453,1,9,2,3
9,3,2,26,9-5-3=1,1,1.741080904,1,10,2,4
9,3,2,27,9-3-4=1,2,1.645473082,1,9,2,3
9,3,2,28,8-6-2=0,1,1.59870924,1,9,2,3
9,3,2,29,8-5-2=1,1,1.385037952,1,9,1,3
9,3,2,30,9-1-2=6,1,1.384950058,1,9,1,3
9,3,2,31,5-2-3=1,2,1.343071901,1,10,2,4
9,3,2,32,7-3-4=0,1,1.657016794,1,9,1,3
9,3,2,33,7-5-2=1,2,1.4362654,1,9,1,3
9,3,2,34,7-1-4=2,1,1.324435725,1,9,1,3
9,3,2,35,7-2-5=1,2,1.242405124,1,9,1,3
9,3,2,36,7-2-4=1,1,1.513000647,1,10,2,4
9,3,2,37,9-1-3=4,2,1.54994604,1,10,2,4
9,3,2,38,8-2-5=1,1,1.746818728,1,10,1,4
9,3,2,39,6-2-4=1,2,1.392015737,1,9,1,3
9,3,2,40,5-1-1=2,2,1.582090527,1,10,1,4
9,3,2,41,8-1-2=6,2,1.568562112,1,9,1,3
9,3,2,42,6-1-2=3,1,1.545965351,1,10,1,4
9,3,2,43,7-1-1=4,2,1.712136349,1,10,1,4
9,3,2,44,7-1-2=4,1,1.411064915,1,10,2,4
9,3,2,45,8-3-5=1,2,1.622045574,1,9,1,3
9,3,2,46,6-2-3=1,1,1.713589402,1,9,2,3
9,3,2,47,8-1-5=2,1,1.47830006,1,9,1,3
9,3,2,48,9-3-6=0,1,1.147321384,1,10,1,4
9,3,2,49,9-1-5=2,2,0.918207502,1,9,1,3
9,3,2,50,7-3-3=1,1,1.480396099,1,10,1,4
9,3,2,51,8-1-1=6,1,1.357281287,1,10,2,4
9,3,2,52,7-2-2=4,2,1.205422964,1,9,2,3
9,4,2,1,9-2-6=0,2,1.353947654,1,10,1,4
9,4,2,2,9-2-7=0,1,1.22052281,0,10,2,3
9,4,2,3,8-3-3=1,2,1.328191637,1,10,2,4
9,4,2,4,8-1-3=4,1,1.594881848,1,9,1,3
9,4,2,5,9-1-6=3,2,1.591304977,1,10,1,4
9,4,2,6,6-1-1=3,2,1.611725105,1,9,1,3
9,4,2,7,6-4-2=0,1,1.483532711,1,10,2,4
9,4,2,8,9-3-5=0,2,1.537945066,1,9,1,3
9,4,2,9,8-3-4=1,1,1.624173684,1,9,1,3
9,4,2,10,8-2-6=1,2,1.490018118,1,9,1,3
9,4,2,11,8-5-3=1,2,1.499698074,1,10,2,4
9,4,2,12,9-2-1=6,1,1.409548046,1,9,2,3
9,4,2,13,7-4-2=0,2,1.290087717,1,9,2,3
9,4,2,14,7-2-1=4,1,1.550977932,1,10,2,4
9,4,2,15,9-4-5=0,1,1.461624209,1,9,1,3
9,4,2,16,9-2-3=5,2,1.445510489,1,10,1,4
9,4,2,17,9-4-4=2,2,1.624151608,1,10,2,4
9,4,2,18,8-2-2=5,2,1.621087713,1,10,2,4
9,4,2,19,8-2-1=5,1,1.584088183,1,9,2,3
9,4,2,20,9-3-1=5,1,1.504915323,1,9,1,3
9,4,2,21,8-1-4=3,1,1.191989226,1,10,1,4
9,4,2,22,9-5-1=2,2,1.587757455,1,10,1,4
9,4,2,23,9-6-2=0,2,1.369319585,1,10,1,4
9,4,2,24,9-3-2=4,1,1.67042267,1,9,1,3
9,4,2,25,9-2-2=4,2,1.556392039,1,9,2,3
9,4,2,26,9-5-3=1,1,1.503460367,1,9,2,3
9,4,2,27,9-3-4=1,2,1.584560397,1,9,2,3
9,4,2,28,8-6-2=0,1,1.547854185,1,10,2,4
9,4,2,29,8-5-2=1,1,1.389272789,1,10,2,4
9,4,2,30,9-1-2=6,1,1.457498187,1,9,1,3
9,4,2,31,5-2-3=1,2,1.259395113,1,10,1,4
9,4,2,32,7-3-4=0,1,1.421133076,1,9,1,3
9,4,2,33,7-5-2=1,2,1.357043648,1,10,1,4
9,4,2,34,7-1-4=2,1,1.602783789,1,10,2,4
9,4,2,35,7-2-5=1,2,1.670855637,1,10,1,4
9,4,2,36,7-2-4=1,1,1.44959482,1,9,1,3
9,4,2,37,9-1-3=4,2,1.550387194,1,9,1,3
9,4,2,38,8-2-5=1,1,1.264225631,1,10,1,4
9,4,2,39,6-2-4=1,2,1.576254106,1,10,1,4
9,4,2,40,5-1-1=2,2,1.522143674,1,10,2,4
9,4,2,41,8-1-2=6,2,1.452853933,1,9,2,3
9,4,2,42,6-1-2=3,1,1.488387822,1,9,2,3
9,4,2,43,7-1-1=4,2,1.638836387,1,9,2,3
9,4,2,44,7-1-2=4,1,1.777750472,1,9,1,3
9,4,2,45,8-3-5=1,2,1.459070987,1,9,1,3
9,4,2,46,6-2-3=1,1,1.550157966,1,10,2,4
9,4,2,47,8-1-5=2,1,1.509396464,1,9,1,3
9,4,2,48,9-3-6=0,1,1.45615291,1,9,2,3
9,4,2,49,9-1-5=2,2,1.449451274,1,10,1,4
9,4,2,50,7-3-3=1,1,1.590023536,1,10,1,4
9,4,2,51,8-1-1=6,1,1.65126069,1,10,2,4
9,4,2,52,7-2-2=4,2,1.420580986,1,9,1,3
10,1,1,1,7-3-4=1,1,1.355746996,0,10,2,3
10,1,1,2,9-2-6=1,2,1.451538012,1,9,1,3
10,1,1,3,7-2-2=3,2,1.834909018,1,9,1,3
10,1,1,4,9-1-3=5,2,1.471105327,1,10,2,4
10,1,1,5,7-3-3=2,1,1.670767135,1,9,2,3
10,1,1,6,7-1-1=5,2,1.534807317,1,9,2,3
10,1,1,7,9-3-6=1,1,1.860698198,1,10,2,4
10,1,1,8,7-2-5=0,2,1.509337463,1,9,1,3
10,1,1,9,9-1-6=2,2,1.507499951,1,10,1,4
10,1,1,10,9-1-2=5,1,1.23287204,1,9,2,3
10,1,1,11,8-3-4=2,1,1.469133023,1,9,2,3
10,1,1,12,7-1-2=3,1,1.684346323,1,10,2,4
10,1,1,13,8-1-5=3,1,1.665527802,1,10,2,4
10,1,1,14,5-2-3=0,2,1.339051657,1,9,2,3
10,1,1,15,6-4-2=1,1,1.90384411,1,10,1,4
10,1,1,16,8-1-1=5,1,1.674533569,1,10,1,4
10,1,1,17,8-1-3=5,1,1.507273319,1,10,1,4
10,1,1,18,9-2-1=5,1,2.019181355,1,10,2,4
10,1,1,19,7-2-1=3,1,1.657354723,1,9,1,3
10,1,1,20,8-2-6=0,2,1.668332485,1,10,1,4
10,1,1,21,8-2-5=0,1,1.382366912,0,10,1,3
10,1,1,22,9-3-2=5,1,1.486648459,1,9,2,3
10,1,1,23,6-2-4=0,2,2.954509273,0,10,1,3
10,1,1,24,8-3-5=0,2,1.399500192,1,9,2,3
10,1,1,25,6-2-3=0,1,1.578994575,1,9,1,3
10,1,1,26,6-1-1=4,2,1.270335755,1,9,2,3
10,1,1,27,9-3-4=2,2,2.324206117,1,9,1,3
10,1,1,28,8-5-3=0,2,1.303941025,1,10,1,4
10,1,1,29,9-6-2=1,2,2.245500338,1,10,1,4
10,1,1,30,8-5-2=0,1,1.196337139,1,9,2,3
10,1,1,31,9-5-3=0,1,1.234583315,1,10,1,4
10,1,1,32,7-1-4=3,1,1.338274715,1,9,2,3
10,1,1,33,7-5-2=0,2,1.4366172,1,10,2,4
10,1,1,34,9-2-7=1,1,1.359187055,1,9,2,3
10,1,1,35,8-1-4=2,1,1.971664211,1,10,2,4
10,1,1,36,8-1-2=5,2,1.559796227,1,10,1,4
10,1,1,37,8-2-1=4,1,1.311073049,1,10,1,4
10,1,1,38,9-3-1=4,1,1.71148859,1,9,2,3
10,1,1,39,9-2-3=4,2,1.581478233,1,10,1,4
10,1,1,40,7-2-4=0,1,1.530904687,0,9,1,4
10,1,1,41,8-2-2=4,2,1.472702664,1,10,1,4
10,1,1,42,8-6-2=1,1,1.199286088,1,10,1,4
10,1,1,43,9-4-5=1,1,1.027941037,1,9,2,3
10,1,1,44,7-4-2=1,2,1.582255983,1,10,1,4
10,1,1,45,9-4-4=1,2,2.626259712,1,10,2,4
10,1,1,46,6-1-2=4,1,1.353998725,1,9,2,3
10,1,1,47,9-1-5=3,2,1.179591415,1,10,2,4
10,1,1,48,8-3-3=2,2,1.065357763,1,10,2,4
10,1,1,49,9-3-5=1,2,1.306400925,1,9,1,3
10,1,1,50,9-5-1=3,2,1.403041853,1,9,1,3
10,1,1,51,9-2-2=5,2,1.405639829,1,9,2,3
10,1,1,52,5-1-1=3,2,1.292535721,1,10,2,4
10,2,1,1,7-3-4=1,1,1.243555608,1,10,1,4
10,2,1,2,9-2-6=1,2,1.599428998,1,10,2,4
10,2,1,3,7-2-2=3,2,1.556836948,1,10,1,4
10,2,1,4,9-1-3=5,2,1.934619713,1,9,1,3
10,2,1,5,7-3-3=2,1,1.14260796,1,10,2,4
10,2,1,6,7-1-1=5,2,1.937176363,1,10,1,4
10,2,1,7,9-3-6=1,1,1.579399665,1,10,2,4
10,2,1,8,7-2-5=0,2,1.374219593,1,10,2,4
10,2,1,9,9-1-6=2,2,1.469086287,1,10,2,4
10,2,1,10,9-1-2=5,1,1.600447267,1,10,1,4
10,2,1,11,8-3-4=2,1,1.528648072,1,10,1,4
10,2,1,12,7-1-2=3,1,1.122307991,1,9,2,3
10,2,1,13,8-1-5=3,1,1.313049516,1,9,2,3
10,2,1,14,5-2-3=0,2,1.307458346,1,9,2,3
10,2,1,15,6-4-2=1,1,1.951109398,1,10,1,4
10,2,1,16,8-1-1=5,1,1.619416794,1,10,2,4
10,2,1,17,8-1-3=5,1,1.676435518,1,9,1,3
10,2,1,18,9-2-1=5,1,1.448735951,1,9,2,3
10,2,1,19,7-2-1=3,1,1.345176931,1,10,2,4
10,2,1,20,8-2-6=0,2,1.225429329,1,9,2,3
10,2,1,21,8-2-5=0,1,1.532019002,1,9,2,3
10,2,1,22,9-3-2=5,1,1.329678703,1,9,2,3
10,2,1,23,6-2-4=0,2,1.171606211,1,9,1,3
10,2,1,24,8-3-5=0,2,1.248349573,1,9,2,3
10,2,1,25,6-2-3=0,1,2.20799096,1,10,2,4
10,2,1,26,6-1-1=4,2,1.26693469,1,10,1,4
10,2,1,27,9-3-4=2,2,1.136590809,1,9,2,3
10,2,1,28,8-5-3=0,2,1.599186694,1,10,2,4
10,2,1,29,9-6-2=1,2,1.313544062,1,10,2,4
10,2,1,30,8-5-2=0,1,1.287336684,1,10,2,4
10,2,1,31,9-5-3=0,1,1.232782518,1,10,2,4
10,2,1,32,7-1-4=3,1,2.958717467,1,10,1,4
10,2,1,33,7-5-2=0,2,2.186121444,1,10,2,4
10,2,1,34,9-2-7=1,1,2.717600233,1,10,2,4
10,2,1,35,8-1-4=2,1,1.248335868,1,9,1,3
10,2,1,36,8-1-2=5,2,1.329017204,1,9,1,3
10,2,1,37,8-2-1=4,1,1.420509582,1,9,2,3
10,2,1,38,9-3-1=4,1,2.547002998,1,10,1,4
10,2,1,39,9-2-3=4,2,1.845426451,1,9,1,3
10,2,1,40,7-2-4=0,1,1.143461751,1,9,2,3
10,2,1,41,8-2-2=4,2,1.824114691,1,10,2,4
10,2,1,42,8-6-2=1,1,2.128491565,1,10,1,4
10,2,1,43,9-4-5=1,1,1.756234013,1,9,1,3
10,2,1,44,7-4-2=1,2,2.857996938,1,10,2,4
10,2,1,45,9-4-4=1,2,1.188239953,1,9,1,3
10,2,1,46,6-1-2=4,1,1.843103209,1,9,2,3
10,2,1,47,9-1-5=3,2,1.278281137,1,9,2,3
10,2,1,48,8-3-3=2,2,1.534715808,1,10,1,4
10,2,1,49,9-3-5=1,2,1.358423682,1,9,2,3
10,2,1,50,9-5-1=3,2,1.578793371,1,10,1,4
10,2,1,51,9-2-2=5,2,1.394108307,1,9,2,3
10,2,1,52,5-1-1=3,2,1.343842805,1,9,1,3
10,3,2,1,6-2-4=0,2,2.329145664,1,10,1,4
10,3,2,2,9-2-1=5,1,2.055737884,1,9,1,3
10,3,2,3,7-3-4=1,1,1.99587221,1,9,2,3
10,3,2,4,8-2-5=0,1,1.47751278,1,10,2,4
10,3,2,5,9-6-2=1,2,1.666265686,1,10,2,4
10,3,2,6,8-3-5=0,2,1.754041883,1,10,1,4
10,3,2,7,8-2-2=4,2,1.577911708,1,10,2,4
10,3,2,8,8-3-3=2,2,1.569419119,1,9,2,3
10,3,2,9,7-1-2=3,1,1.797112471,1,9,2,3
10,3,2,10,5-2-3=0,2,1.769675851,1,10,1,4
10,3,2,11,8-3-4=2,1,1.932437538,1,9,2,3
10,3,2,12,9-2-7=1,1,1.709444257,1,10,2,4
10,3,2,13,9-4-4=1,2,1.554708194,1,10,1,4
10,3,2,14,8-1-4=2,1,1.869156853,1,9,2,3
10,3,2,15,8-5-2=0,1,1.919196686,1,10,1,4
10,3,2,16,9-1-3=5,2,1.480086031,1,9,1,3
10,3,2,17,9-1-5=3,2,1.522873458,1,10,1,4
10,3,2,18,9-5-1=3,2,1.592792664,1,10,2,4
10,3,2,19,7-2-4=0,1,1.60317666,1,9,1,3
10,3,2,20,9-3-1=4,1,1.755488669,1,9,1,3
10,3,2,21,9-1-6=2,2,1.417922234,1,10,1,4
10,3,2,22,7-2-2=3,2,1.454705147,1,10,2,4
10,3,2,23,6-4-2=1,1,1.614909364,1,9,2,3
10,3,2,24,8-1-1=5,1,2.10092966,1,10,1,4
10,3,2,25,9-3-5=1,2,1.684227125,1,10,2,4
10,3,2,26,8-2-1=4,1,1.461892352,1,9,1,3
10,3,2,27,9-2-3=4,2,1.586656792,1,9,2,3
10,3,2,28,6-2-3=0,1,1.569848719,1,10,1,4
10,3,2,29,7-4-2=1,2,1.875439543,1,10,1,4
10,3,2,30,7-2-1=3,1,1.35702644,1,9,2,3
10,3,2,31,9-3-2=5,1,1.853965404,1,10,2,4
10,3,2,32,5-1-1=3,2,1.59727909,1,9,1,3
10,3,2,33,7-1-4=3,1,1.703281152,1,10,1,4
10,3,2,34,7-1-1=5,2,1.60809324,1,10,2,4
10,3,2,35,8-1-3=5,1,1.672403709,1,9,1,3
10,3,2,36,8-2-6=0,2,1.316632847,1,10,1,4
10,3,2,37,9-3-6=1,1,1.388573538,1,9,2,3
10,3,2,38,8-5-3=0,2,1.61626794,1,10,2,4
10,3,2,39,7-2-5=0,2,1.547705892,1,9,1,3
10,3,2,40,8-1-5=3,1,1.617741477,1,9,2,3
10,3,2,41,9-2-6=1,2,1.814191818,1,10,1,4
10,3,2,42,6-1-2=4,1,1.676263662,1,9,2,3
10,3,2,43,7-5-2=0,2,1.579995271,1,9,2,3
10,3,2,44,8-1-2=5,2,1.590676773,1,9,1,3
10,3,2,45,9-1-2=5,1,1.53883375,1,9,1,3
10,3,2,46,6-1-1=4,2,2.270325631,1,9,2,3
10,3,2,47,9-5-3=0,1,1.745180761,1,10,1,4
10,3,2,48,7-3-3=2,1,1.546266965,0,9,1,4
10,3,2,49,9-4-5=1,1,2.039178676,1,10,1,4
10,3,2,50,9-2-2=5,2,1.274216105,1,9,2,3
10,3,2,51,8-6-2=1,1,1.373547903,1,9,1,3
10,3,2,52,9-3-4=2,2,2.059206636,1,10,2,4
10,4,2,1,6-2-4=0,2,1.69167356,1,10,2,4
10,4,2,2,9-2-1=5,1,1.516136003,1,10,2,4
10,4,2,3,7-3-4=1,1,1.836812042,1,10,2,4
10,4,2,4,8-2-5=0,1,1.42737081,1,10,2,4
10,4,2,5,9-6-2=1,2,1.875799996,1,10,2,4
10,4,2,6,8-3-5=0,2,1.371951845,1,9,2,3
10,4,2,7,8-2-2=4,2,1.323314175,1,10,2,4
10,4,2,8,8-3-3=2,2,1.411079286,1,9,2,3
10,4,2,9,7-1-2=3,1,1.535654708,1,10,2,4
10,4,2,10,5-2-3=0,2,1.381518585,1,9,2,3
10,4,2,11,8-3-4=2,1,1.330974188,1,10,2,4
10,4,2,12,9-2-7=1,1,1.226852895,1,9,2,3
10,4,2,13,9-4-4=1,2,1.348614224,1,9,2,3
10,4,2,14,8-1-4=2,1,1.768618908,1,9,1,3
10,4,2,15,8-5-2=0,1,1.511575957,1,10,1,4
10,4,2,16,9-1-3=5,2,1.80382796,1,10,1,4
10,4,2,17,9-1-5=3,2,1.585415278,1,10,2,4
10,4,2,18,9-5-1=3,2,1.52983083,1,9,1,3
10,4,2,19,7-2-4=0,1,1.979617723,1,9,1,3
10,4,2,20,9-3-1=4,1,1.48387201,1,9,2,3
10,4,2,21,9-1-6=2,2,1.391131312,1,9,2,3
10,4,2,22,7-2-2=3,2,1.584066611,1,10,2,4
10,4,2,23,6-4-2=1,1,1.482761544,1,9,1,3
10,4,2,24,8-1-1=5,1,1.413329498,1,9,2,3
10,4,2,25,9-3-5=1,2,1.879696272,1,9,1,3
10,4,2,26,8-2-1=4,1,1.366970757,1,9,2,3
10,4,2,27,9-2-3=4,2,1.610292867,1,10,1,4
10,4,2,28,6-2-3=0,1,1.246321056,1,9,1,3
10,4,2,29,7-4-2=1,2,1.745887754,1,9,1,3
10,4,2,30,7-2-1=3,1,1.618482612,0,10,2,3
10,4,2,31,9-3-2=5,1,1.607090655,1,10,1,4
10,4,2,32,5-1-1=3,2,2.273715966,1,10,2,4
10,4,2,33,7-1-4=3,1,1.771803894,1,10,2,4
10,4,2,34,7-1-1=5,2,1.583778165,1,10,2,4
10,4,2,35,8-1-3=5,1,1.137716956,1,9,2,3
10,4,2,36,8-2-6=0,2,1.465864046,1,10,2,4
10,4,2,37,9-3-6=1,1,2.114860178,1,9,1,3
10,4,2,38,8-5-3=0,2,1.237762605,1,9,2,3
10,4,2,39,7-2-5=0,2,1.84474604,1,9,2,3
10,4,2,40,8-1-5=3,1,1.826309849,1,10,1,4
10,4,2,41,9-2-6=1,2,1.680682341,1,10,2,4
10,4,2,42,6-1-2=4,1,1.478185087,1,9,1,3
10,4,2,43,7-5-2=0,2,1.476272638,1,10,2,4
10,4,2,44,8-1-2=5,2,1.563701245,1,9,1,3
10,4,2,45,9-1-2=5,1,1.459252191,1,9,1,3
10,4,2,46,6-1-1=4,2,1.708165163,1,10,1,4
10,4,2,47,9-5-3=0,1,1.506399575,1,10,1,4
10,4,2,48,7-3-3=2,1,1.615770042,1,9,1,3
10,4,2,49,9-4-5=1,1,2.00259655,1,9,2,3
10,4,2,50,9-2-2=5,2,1.668192642,1,10,1,4
10,4,2,51,8-6-2=1,1,1.517929039,1,9,1,3
10,4,2,52,9-3-4=2,2,1.492284696,1,9,2,3
11,1,1,1,8-5-2=0,1,1.656538753,1,10,1,4
11,1,1,2,5-2-3=0,2,1.490677236,1,9,2,3
11,1,1,3,8-2-5=0,1,1.742909939,1,10,2,4
11,1,1,4,6-1-1=4,2,2.241208709,1,10,1,4
11,1,1,5,5-1-1=3,2,1.137681092,1,10,1,4
11,1,1,6,8-1-1=5,1,1.618655607,1,10,2,4
11,1,1,7,8-3-4=2,1,1.743663481,1,9,2,3
11,1,1,8,7-4-2=1,2,2.106762503,1,9,2,3
11,1,1,9,7-2-1=3,1,1.448146612,1,9,2,3
11,1,1,10,9-3-2=5,1,1.820398149,1,10,1,4
11,1,1,11,9-3-4=2,2,1.235892344,0,9,1,4
11,1,1,12,9-3-1=4,1,1.582535608,1,10,2,4
11,1,1,13,9-1-3=5,2,2.002920827,1,10,1,4
11,1,1,14,9-6-2=1,2,1.489405173,1,10,1,4
11,1,1,15,7-2-4=0,1,1.513062815,0,9,1,4
11,1,1,16,6-1-2=4,1,1.860238911,1,10,2,4
11,1,1,17,9-4-5=1,1,1.820106215,1,10,1,4
11,1,1,18,8-2-6=0,2,2.31112609,1,10,2,4
11,1,1,19,8-6-2=1,1,3.071845168,1,10,2,4
11,1,1,20,9-1-2=5,1,2.327960773,1,10,2,4
11,1,1,21,9-1-6=2,2,1.711525372,1,10,2,4
11,1,1,22,9-5-1=3,2,3.176657598,1,9,1,3
11,1,1,23,7-2-2=3,2,1.382021722,1,10,2,4
11,1,1,24,7-5-2=0,2,1.599772491,1,9,2,3
11,1,1,25,8-1-5=3,1,1.401058952,1,9,2,3
11,1,1,26,7-1-2=3,1,1.467726064,1,9,1,3
11,1,1,27,8-3-5=0,2,2.257242843,1,10,2,4
11,1,1,28,9-2-7=1,1,1.613692273,1,9,1,3
11,1,1,29,9-1-5=3,2,1.226031895,1,9,2,3
11,1,1,30,8-5-3=0,2,2.26188874,1,10,1,4
11,1,1,31,7-2-5=0,2,2.111588187,1,10,1,4
11,1,1,32,8-3-3=2,2,1.290337391,1,10,1,4
11,1,1,33,9-2-2=5,2,1.314575844,1,10,1,4
11,1,1,34,9-5-3=0,1,1.268540153,1,10,1,4
11,1,1,35,9-2-3=4,2,2.297523073,1,9,1,3
11,1,1,36,9-2-1=5,1,1.355685478,1,9,1,3
11,1,1,37,7-1-1=5,2,1.447293454,1,10,2,4
11,1,1,38,8-1-3=5,1,2.174703138,1,9,1,3
11,1,1,39,9-2-6=1,2,2.106747466,1,10,2,4
11,1,1,40,7-3-3=2,1,1.752066243,1,9,2,3
11,1,1,41,9-3-5=1,2,2.521824247,1,10,2,4
11,1,1,42,8-1-4=2,1,1.577576645,1,9,2,3
11,1,1,43,6-4-2=1,1,0.844258,1,9,2,3
11,1,1,44,7-3-4=1,1,1.173100564,1,9,1,3
11,1,1,45,8-2-1=4,1,0.844788443,1,10,2,4
11,1,1,46,8-1-2=5,2,1.310110835,1,9,1,3
11,1,1,47,6-2-3=0,1,1.418139261,1,9,1,3
11,1,1,48,6-2-4=0,2,2.719311452,1,9,1,3
11,1,1,49,7-1-4=3,1,1.522362898,1,9,1,3
11,1,1,50,9-3-6=1,1,6.182786445,1,10,2,4
11,1,1,51,8-2-2=4,2,1.706304037,1,10,1,4
11,1,1,52,9-4-4=1,2,1.671030364,0,9,1,4
11,2,1,1,8-5-2=0,1,2.332253956,1,10,1,4
11,2,1,2,5-2-3=0,2,1.418585061,1,9,2,3
11,2,1,3,8-2-5=0,1,2.550931112,1,10,2,4
11,2,1,4,6-1-1=4,2,1.477143828,1,9,1,3
11,2,1,5,5-1-1=3,2,1.776669437,1,9,1,3
11,2,1,6,8-1-1=5,1,1.822743396,1,10,2,4
11,2,1,7,8-3-4=2,1,3.553209304,1,10,2,4
11,2,1,8,7-4-2=1,2,2.531513243,1,9,1,3
11,2,1,9,7-2-1=3,1,2.905872232,1,10,2,4
11,2,1,10,9-3-2=5,1,1.529037839,1,10,1,4
11,2,1,11,9-3-4=2,2,2.107481825,1,10,1,4
11,2,1,12,9-3-1=4,1,1.751662646,1,9,1,3
11,2,1,13,9-1-3=5,2,1.271237422,1,9,2,3
11,2,1,14,9-6-2=1,2,1.890686001,1,10,1,4
11,2,1,15,7-2-4=0,1,1.474898879,1,10,1,4
11,2,1,16,6-1-2=4,1,4.534920639,1,10,2,4
11,2,1,17,9-4-5=1,1,1.676224724,1,9,1,3
11,2,1,18,8-2-6=0,2,1.505607739,1,10,2,4
11,2,1,19,8-6-2=1,1,1.057383142,1,10,1,4
11,2,1,20,9-1-2=5,1,3.016332614,1,9,2,3
11,2,1,21,9-1-6=2,2,3.007717404,1,10,2,4
11,2,1,22,9-5-1=3,2,1.402132568,1,9,1,3
11,2,1,23,7-2-2=3,2,1.623551605,1,9,1,3
11,2,1,24,7-5-2=0,2,1.439318231,1,9,1,3
11,2,1,25,8-1-5=3,1,1.194156864,1,9,1,3
11,2,1,26,7-1-2=3,1,1.231234622,0,10,1,3
11,2,1,27,8-3-5=0,2,2.081721839,1,10,2,4
11,2,1,28,9-2-7=1,1,3.640706392,1,10,2,4
11,2,1,29,9-1-5=3,2,1.424748482,1,9,1,3
11,2,1,30,8-5-3=0,2,1.710609684,1,10,1,4
11,2,1,31,7-2-5=0,2,4.901109782,1,9,1,3
11,2,1,32,8-3-3=2,2,2.685180324,1,10,1,4
11,2,1,33,9-2-2=5,2,1.230271912,1,9,1,3
11,2,1,34,9-5-3=0,1,1.446773304,1,9,1,3
11,2,1,35,9-2-3=4,2,1.419337621,1,10,1,4
11,2,1,36,9-2-1=5,1,1.142501565,1,10,1,4
11,2,1,37,7-1-1=5,2,8.043106681,1,9,2,3
11,2,1,38,8-1-3=5,1,1.198615714,1,9,1,3
11,2,1,39,9-2-6=1,2,3.598660261,1,9,2,3
11,2,1,40,7-3-3=2,1,2.453632482,1,10,2,4
11,2,1,41,9-3-5=1,2,1.404701035,1,9,1,3
11,2,1,42,8-1-4=2,1,2.606987954,1,10,2,4
11,2,1,43,6-4-2=1,1,1.536756104,1,9,1,3
11,2,1,44,7-3-4=1,1,10.02903112,-1,10,2,0
11,2,1,45,8-2-1=4,1,3.728433306,1,10,1,4
11,2,1,46,8-1-2=5,2,1.384250991,1,10,1,4
11,2,1,47,6-2-3=0,1,2.012475313,1,10,1,4
11,2,1,48,6-2-4=0,2,2.635172578,1,10,1,4
11,2,1,49,7-1-4=3,1,1.684582187,1,10,2,4
11,2,1,50,9-3-6=1,1,1.598170972,1,10,2,4
11,2,1,51,8-2-2=4,2,1.346389827,1,10,1,4
11,2,1,52,9-4-4=1,2,1.971485049,1,9,2,3
11,3,2,1,5-1-1=3,2,2.615269764,1,10,1,4
11,3,2,2,8-2-2=4,2,2.82699023,1,9,2,3
11,3,2,3,9-2-2=5,2,1.672591727,1,9,1,3
11,3,2,4,8-1-3=5,1,2.046229811,1,10,2,4
11,3,2,5,7-3-3=2,1,1.704057127,1,10,1,4
11,3,2,6,6-4-2=1,1,1.377283962,1,9,1,3
11,3,2,7,8-2-1=4,1,1.633148907,1,9,1,3
11,3,2,8,9-2-7=1,1,1.755102212,0,10,1,3
11,3,2,9,7-4-2=1,2,1.462710801,1,10,1,4
11,3,2,10,7-2-5=0,2,2.241986189,1,10,1,4
11,3,2,11,9-2-3=4,2,2.099904473,1,10,1,4
11,3,2,12,9-1-5=3,2,2.030624103,1,9,1,3
11,3,2,13,6-1-1=4,2,1.277511343,1,9,1,3
11,3,2,14,7-2-2=3,2,1.608019724,1,10,1,4
11,3,2,15,8-2-5=0,1,1.624091072,1,9,2,3
11,3,2,16,8-1-2=5,2,2.006002874,1,9,2,3
11,3,2,17,8-5-2=0,1,1.981984075,1,10,2,4
11,3,2,18,7-1-1=5,2,2.167465521,1,9,1,3
11,3,2,19,9-4-4=1,2,2.748687216,1,10,2,4
11,3,2,20,6-2-4=0,2,1.576748817,0,9,1,4
11,3,2,21,8-1-1=5,1,2.265700768,1,10,2,4
11,3,2,22,7-3-4=1,1,1.394574937,1,9,1,3
11,3,2,23,9-2-1=5,1,2.249155216,1,10,1,4
11,3,2,24,8-3-3=2,2,1.464138625,1,9,1,3
11,3,2,25,6-1-2=4,1,1.579479357,1,9,1,3
11,3,2,26,8-1-4=2,1,1.999371984,1,10,1,4
11,3,2,27,9-1-3=5,2,0.989422697,0,10,1,3
11,3,2,28,9-5-3=0,1,1.154975035,1,10,1,4
11,3,2,29,8-3-4=2,1,1.58688064,0,10,1,3
11,3,2,30,6-2-3=0,1,1.58738204,1,9,1,3
11,3,2,31,9-3-1=4,1,1.665246973,1,10,1,4
11,3,2,32,7-1-2=3,1,1.96639737,1,10,1,4
11,3,2,33,9-3-5=1,2,1.77171322,1,9,1,3
11,3,2,34,7-2-4=0,1,1.681168583,1,9,1,3
11,3,2,35,9-2-6=1,2,1.437898984,1,9,2,3
11,3,2,36,9-1-6=2,2,1.091989135,0,9,2,4
11,3,2,37,5-2-3=0,2,1.441480633,1,10,1,4
11,3,2,38,9-3-2=5,1,2.234074087,1,10,2,4
11,3,2,39,9-6-2=1,2,2.434608209,1,9,1,3
11,3,2,40,8-5-3=0,2,1.380855389,1,9,1,3
11,3,2,41,9-3-6=1,1,1.46679819,1,10,2,4
11,3,2,42,8-2-6=0,2,2.760364512,1,10,1,4
11,3,2,43,7-2-1=3,1,1.635497306,1,10,2,4
11,3,2,44,8-1-5=3,1,1.955980832,1,10,1,4
11,3,2,45,7-5-2=0,2,1.823009462,1,10,1,4
11,3,2,46,7-1-4=3,1,1.880504112,1,10,1,4
11,3,2,47,8-3-5=0,2,1.873073304,1,10,1,4
11,3,2,48,9-3-4=2,2,1.445392566,1,10,1,4
11,3,2,49,8-6-2=1,1,1.316012742,1,9,1,3
11,3,2,50,9-1-2=5,1,1.704224468,1,9,1,3
11,3,2,51,9-4-5=1,1,1.127724679,1,10,1,4
11,3,2,52,9-5-1=3,2,1.019276333,1,10,2,4
11,4,2,1,5-1-1=3,2,2.271715304,1,9,2,3
11,4,2,2,8-2-2=4,2,2.412412994,1,9,2,3
11,4,2,3,9-2-2=5,2,3.220681065,1,10,1,4
11,4,2,4,8-1-3=5,1,1.328261224,1,10,2,4
11,4,2,5,7-3-3=2,1,2.022164166,1,9,2,3
11,4,2,6,6-4-2=1,1,2.174290734,1,10,2,4
11,4,2,7,8-2-1=4,1,2.297673763,1,9,1,3
11,4,2,8,9-2-7=1,1,2.480412908,1,9,2,3
11,4,2,9,7-4-2=1,2,1.068976476,1,9,1,3
11,4,2,10,7-2-5=0,2,1.490092743,1,9,2,3
11,4,2,11,9-2-3=4,2,1.444465521,1,9,1,3
11,4,2,12,9-1-5=3,2,1.414797957,1,9,2,3
11,4,2,13,6-1-1=4,2,1.595851082,1,9,1,3
11,4,2,14,7-2-2=3,2,2.321311982,1,10,2,4
11,4,2,15,8-2-5=0,1,2.446670742,1,10,1,4
11,4,2,16,8-1-2=5,2,1.875827806,1,9,1,3
11,4,2,17,8-5-2=0,1,1.228127779,1,9,2,3
11,4,2,18,7-1-1=5,2,1.842903619,1,9,1,3
11,4,2,19,9-4-4=1,2,2.257261646,1,10,2,4
11,4,2,20,6-2-4=0,2,1.608128509,1,9,1,3
11,4,2,21,8-1-1=5,1,2.199200922,1,9,1,3
11,4,2,22,7-3-4=1,1,1.523461913,1,10,1,4
11,4,2,23,9-2-1=5,1,2.970744521,1,9,1,3
11,4,2,24,8-3-3=2,2,2.87606917,1,9,1,3
11,4,2,25,6-1-2=4,1,1.975011027,1,9,2,3
11,4,2,26,8-1-4=2,1,3.104752571,1,9,1,3
11,4,2,27,9-1-3=5,2,1.357618306,1,9,1,3
11,4,2,28,9-5-3=0,1,1.719075731,1,9,1,3
11,4,2,29,8-3-4=2,1,4.192336804,1,10,2,4
11,4,2,30,6-2-3=0,1,2.817716741,1,9,1,3
11,4,2,31,9-3-1=4,1,1.918886709,1,10,2,4
11,4,2,32,7-1-2=3,1,2.111419679,1,9,2,3
11,4,2,33,9-3-5=1,2,2.724976656,1,9,2,3
11,4,2,34,7-2-4=0,1,1.939663192,1,9,1,3
11,4,2,35,9-2-6=1,2,2.288010082,1,10,1,4
11,4,2,36,9-1-6=2,2,1.614331406,1,9,1,3
11,4,2,37,5-2-3=0,2,1.847055743,1,10,2,4
11,4,2,38,9-3-2=5,1,2.396459723,0,10,1,3
11,4,2,39,9-6-2=1,2,1.395092683,1,9,2,3
11,4,2,40,8-5-3=0,2,2.133166943,1,10,2,4
11,4,2,41,9-3-6=1,1,2.033331421,1,10,1,4
11,4,2,42,8-2-6=0,2,1.38311202,1,10,2,4
11,4,2,43,7-2-1=3,1,2.13008476,1,10,2,4
11,4,2,44,8-1-5=3,1,1.905320582,1,10,2,4
11,4,2,45,7-5-2=0,2,1.848609258,1,9,1,3
11,4,2,46,7-1-4=3,1,1.671979177,1,9,2,3
11,4,2,47,8-3-5=0,2,1.387740931,1,9,2,3
11,4,2,48,9-3-4=2,2,1.8124814,1,10,2,4
11,4,2,49,8-6-2=1,1,1.555420063,1,9,2,3
11,4,2,50,9-1-2=5,1,2.178592558,1,10,1,4
11,4,2,51,9-4-5=1,1,2.538470896,1,10,1,4
11,4,2,52,9-5-1=3,2,2.037882954,1,10,1,4
12,1,1,1,9-1-6=2,2,1.994770246,1,9,1,3
12,1,1,2,8-1-5=3,1,2.239523904,1,9,1,3
12,1,1,3,9-2-7=1,1,1.312422934,1,9,2,3
12,1,1,4,6-2-4=0,2,1.266753843,1,9,2,3
12,1,1,5,9-1-2=5,1,3.211898856,1,10,2,4
12,1,1,6,5-1-1=3,2,3.197234468,1,10,1,4
12,1,1,7,7-1-2=3,1,2.146140721,1,10,2,4
12,1,1,8,8-3-5=0,2,1.333457349,1,9,1,3
12,1,1,9,9-5-3=0,1,1.06866297,1,9,2,3
12,1,1,10,9-1-3=5,2,1.853597427,1,10,1,4
12,1,1,11,9-2-6=1,2,1.776509827,1,10,2,4
12,1,1,12,8-3-3=2,2,2.148947575,1,10,2,4
12,1,1,13,8-2-6=0,2,2.904581957,1,9,1,3
12,1,1,14,9-3-5=1,2,1.933759001,1,9,1,3
12,1,1,15,9-5-1=3,2,2.330053523,1,10,2,4
12,1,1,16,5-2-3=0,2,2.038634747,1,10,2,4
12,1,1,17,8-5-3=0,2,1.339521218,1,9,1,3
12,1,1,18,7-1-1=5,2,1.668145807,1,9,1,3
12,1,1,19,6-1-1=4,2,1.689190418,1,9,1,3
12,1,1,20,8-1-2=5,2,3.056390497,1,10,1,4
12,1,1,21,9-3-4=2,2,1.273673978,1,9,1,3
12,1,1,22,7-2-4=0,1,1.612699477,1,10,2,4
12,1,1,23,8-6-2=1,1,0.979168019,1,9,2,3
12,1,1,24,9-3-6=1,1,1.264882412,1,9,2,3
12,1,1,25,8-5-2=0,1,1.594428701,1,9,2,3
12,1,1,26,9-3-1=4,1,2.170075987,1,9,1,3
12,1,1,27,9-4-4=1,2,2.235893036,1,9,2,3
12,1,1,28,9-1-5=3,2,2.547051604,1,10,1,4
12,1,1,29,8-2-5=0,1,2.063510899,1,10,1,4
12,1,1,30,7-2-5=0,2,1.266529055,1,10,2,4
12,1,1,31,8-2-1=4,1,1.684720853,1,10,1,4
12,1,1,32,6-1-2=4,1,1.731794699,1,10,2,4
12,1,1,33,9-3-2=5,1,1.12428456,1,9,2,3
12,1,1,34,7-4-2=1,2,1.746410173,1,9,1,3
12,1,1,35,6-4-2=1,1,1.453690395,1,10,1,4
12,1,1,36,8-1-3=5,1,1.228754859,1,10,2,4
12,1,1,37,7-3-3=2,1,2.084759629,1,10,1,4
12,1,1,38,8-1-1=5,1,1.926365144,1,9,1,3
12,1,1,39,8-2-2=4,2,2.308849772,1,10,2,4
12,1,1,40,9-2-2=5,2,1.43750108,1,9,2,3
12,1,1,41,7-5-2=0,2,1.603337835,1,10,2,4
12,1,1,42,7-1-4=3,1,3.14117631,1,10,1,4
12,1,1,43,7-3-4=1,1,5.275336327,1,10,1,4
12,1,1,44,6-2-3=0,1,1.637953629,1,10,1,4
12,1,1,45,7-2-1=3,1,1.673120646,1,9,2,3
12,1,1,46,8-3-4=2,1,1.999775437,1,10,1,4
12,1,1,47,7-2-2=3,2,1.357350036,1,10,2,4
12,1,1,48,9-4-5=1,1,1.46347648,1,10,2,4
12,1,1,49,9-6-2=1,2,1.033692322,1,9,2,3
12,1,1,50,9-2-3=4,2,1.338548204,1,9,2,3
12,1,1,51,9-2-1=5,1,1.50146022,1,10,2,4
12,1,1,52,8-1-4=2,1,1.393608875,1,10,2,4
12,2,1,1,9-1-6=2,2,1.0807673,1,9,2,3
12,2,1,2,8-1-5=3,1,1.268716564,1,10,2,4
12,2,1,3,9-2-7=1,1,1.998588311,1,9,1,3
12,2,1,4,6-2-4=0,2,1.893723212,1,10,1,4
12,2,1,5,9-1-2=5,1,1.340945961,1,9,1,3
12,2,1,6,5-1-1=3,2,1.735898759,1,10,2,4
12,2,1,7,7-1-2=3,1,2.002424736,1,10,2,4
12,2,1,8,8-3-5=0,2,1.15528932,1,10,2,4
12,2,1,9,9-5-3=0,1,1.436895974,1,10,1,4
12,2,1,10,9-1-3=5,2,2.412252286,1,10,1,4
12,2,1,11,9-2-6=1,2,1.379737154,1,9,2,3
12,2,1,12,8-3-3=2,2,1.555942308,1,10,2,4
12,2,1,13,8-2-6=0,2,1.775565852,1,10,2,4
12,2,1,14,9-3-5=1,2,1.47625806,1,9,1,3
12,2,1,15,9-5-1=3,2,1.706790862,1,10,1,4
12,2,1,16,5-2-3=0,2,1.067955028,1,9,2,3
12,2,1,17,8-5-3=0,2,0.898853298,1,9,2,3
12,2,1,18,7-1-1=5,2,1.429383684,1,9,1,3
12,2,1,19,6-1-1=4,2,1.605694534,1,9,1,3
12,2,1,20,8-1-2=5,2,2.724480249,1,9,1,3
12,2,1,21,9-3-4=2,2,1.775960035,1,10,1,4
12,2,1,22,7-2-4=0,1,1.228580749,1,9,2,3
12,2,1,23,8-6-2=1,1,1.379275129,1,9,1,3
12,2,1,24,9-3-6=1,1,2.039523893,1,10,2,4
12,2,1,25,8-5-2=0,1,1.251319631,1,9,2,3
12,2,1,26,9-3-1=4,1,1.804826854,1,9,1,3
12,2,1,27,9-4-4=1,2,1.348308521,1,9,1,3
12,2,1,28,9-1-5=3,2,2.040752699,1,10,1,4
12,2,1,29,8-2-5=0,1,1.861310101,1,10,1,4
12,2,1,30,7-2-5=0,2,1.40764785,1,10,1,4
12,2,1,31,8-2-1=4,1,1.281465536,1,9,2,3
12,2,1,32,6-1-2=4,1,1.469388729,1,9,1,3
12,2,1,33,9-3-2=5,1,1.414647244,1,9,1,3
12,2,1,34,7-4-2=1,2,2.988654674,1,10,1,4
12,2,1,35,6-4-2=1,1,2.300039551,1,10,1,4
12,2,1,36,8-1-3=5,1,3.276270656,1,10,1,4
12,2,1,37,7-3-3=2,1,2.133686355,1,10,2,4
12,2,1,38,8-1-1=5,1,1.666272495,1,10,2,4
12,2,1,39,8-2-2=4,2,1.386634092,1,9,2,3
12,2,1,40,9-2-2=5,2,1.678089553,1,9,2,3
12,2,1,41,7-5-2=0,2,1.974566713,1,10,2,4
12,2,1,42,7-1-4=3,1,1.537227162,1,9,2,3
12,2,1,43,7-3-4=1,1,2.394929322,1,10,1,4
12,2,1,44,6-2-3=0,1,2.790691035,1,10,2,4
12,2,1,45,7-2-1=3,1,1.275666386,1,10,2,4
12,2,1,46,8-3-4=2,1,2.007549227,1,10,2,4
12,2,1,47,7-2-2=3,2,1.584269595,1,9,1,3
12,2,1,48,9-4-5=1,1,1.473135604,1,9,2,3
12,2,1,49,9-6-2=1,2,1.556094624,1,9,1,3
12,2,1,50,9-2-3=4,2,1.606532106,1,9,2,3
12,2,1,51,9-2-1=5,1,1.252868594,1,9,1,3
12,2,1,52,8-1-4=2,1,1.34757821,1,10,2,4
12,3,2,1,8-1-5=3,1,2.076787973,1,10,1,4
12,3,2,2,7-1-2=3,1,2.00084241,1,9,1,3
12,3,2,3,6-2-4=0,2,1.709209251,1,9,1,3
12,3,2,4,9-2-7=1,1,2.257013668,1,10,2,4
12,3,2,5,9-4-5=1,1,1.812084869,1,10,2,4
12,3,2,6,7-4-2=1,2,2.504906395,1,10,2,4
12,3,2,7,8-1-4=2,1,2.06183302,1,10,1,4
12,3,2,8,9-6-2=1,2,1.845843373,1,9,1,3
12,3,2,9,5-2-3=0,2,2.508196874,1,10,1,4
12,3,2,10,9-1-2=5,1,2.366522287,1,10,2,4
12,3,2,11,9-4-4=1,2,1.926627715,1,10,1,4
12,3,2,12,9-5-3=0,1,1.93094557,1,10,2,4
12,3,2,13,9-2-1=5,1,1.876165457,1,10,2,4
12,3,2,14,5-1-1=3,2,2.00512656,1,10,2,4
12,3,2,15,7-2-1=3,1,1.849768534,1,10,1,4
12,3,2,16,9-3-4=2,2,2.33471559,1,9,1,3
12,3,2,17,9-2-6=1,2,2.23752846,1,9,2,3
12,3,2,18,9-2-3=4,2,1.576174241,1,10,1,4
12,3,2,19,7-2-4=0,1,1.744306783,1,10,2,4
12,3,2,20,8-5-2=0,1,1.612496543,1,10,1,4
12,3,2,21,7-2-2=3,2,1.518847891,1,10,2,4
12,3,2,22,8-3-3=2,2,1.840769674,1,9,1,3
12,3,2,23,9-3-6=1,1,2.165485952,1,9,1,3
12,3,2,24,7-2-5=0,2,1.41005361,1,10,2,4
12,3,2,25,8-6-2=1,1,1.319874031,1,9,1,3
12,3,2,26,9-3-5=1,2,1.649995365,1,10,2,4
12,3,2,27,8-2-1=4,1,2.418320883,1,9,1,3
12,3,2,28,9-2-2=5,2,1.741121985,1,9,2,3
12,3,2,29,6-2-3=0,1,1.750029194,1,9,1,3
12,3,2,30,8-3-4=2,1,1.258272853,1,9,1,3
12,3,2,31,6-4-2=1,1,1.844812167,1,10,1,4
12,3,2,32,9-1-6=2,2,1.748254799,1,9,1,3
12,3,2,33,8-1-2=5,2,1.250651661,1,10,2,4
12,3,2,34,8-5-3=0,2,1.978364121,1,10,1,4
12,3,2,35,7-5-2=0,2,1.514008013,1,9,2,3
12,3,2,36,8-2-6=0,2,1.319732068,1,9,1,3
12,3,2,37,9-3-1=4,1,1.327921907,1,10,2,4
12,3,2,38,8-1-3=5,1,1.192756548,1,9,2,3
12,3,2,39,7-1-4=3,1,1.249187009,1,10,1,4
12,3,2,40,6-1-2=4,1,1.389850073,1,9,1,3
12,3,2,41,9-1-5=3,2,1.454131301,1,10,1,4
12,3,2,42,7-3-3=2,1,1.089856477,1,9,2,3
12,3,2,43,7-1-1=5,2,1.317686088,1,10,1,4
12,3,2,44,8-1-1=5,1,1.284739122,1,9,1,3
12,3,2,45,8-2-2=4,2,1.485672578,1,10,2,4
12,3,2,46,9-3-2=5,1,1.196829634,1,10,1,4
12,3,2,47,7-3-4=1,1,1.151674312,1,9,1,3
12,3,2,48,6-1-1=4,2,1.528713408,1,9,1,3
12,3,2,49,8-2-5=0,1,1.575339622,1,10,2,4
12,3,2,50,8-3-5=0,2,1.325932568,1,9,1,3
12,3,2,51,9-5-1=3,2,1.419915225,1,10,1,4
12,3,2,52,9-1-3=5,2,1.616686964,1,10,2,4
12,4,2,1,8-1-5=3,1,1.454175697,1,10,2,4
12,4,2,2,7-1-2=3,1,1.802627189,1,10,1,4
12,4,2,3,6-2-4=0,2,1.194091336,1,9,1,3
12,4,2,4,9-2-7=1,1,2.293338678,1,9,1,3
12,4,2,5,9-4-5=1,1,1.57674279,1,10,1,4
12,4,2,6,7-4-2=1,2,2.628349573,1,10,2,4
12,4,2,7,8-1-4=2,1,1.539128855,1,9,1,3
12,4,2,8,9-6-2=1,2,1.461438182,1,10,2,4
12,4,2,9,5-2-3=0,2,1.772742621,1,9,2,3
12,4,2,10,9-1-2=5,1,1.812035894,1,9,1,3
12,4,2,11,9-4-4=1,2,1.196694383,1,9,1,3
12,4,2,12,9-5-3=0,1,2.039170663,1,9,2,3
12,4,2,13,9-2-1=5,1,2.502253899,1,9,2,3
12,4,2,14,5-1-1=3,2,2.190388149,1,10,1,4
12,4,2,15,7-2-1=3,1,2.01774633,1,9,1,3
12,4,2,16,9-3-4=2,2,1.35814063,1,9,2,3
12,4,2,17,9-2-6=1,2,2.048344069,1,10,2,4
12,4,2,18,9-2-3=4,2,1.848605395,1,9,2,3
12,4,2,19,7-2-4=0,1,2.060679553,1,10,2,4
12,4,2,20,8-5-2=0,1,1.383211474,1,10,1,4
12,4,2,21,7-2-2=3,2,1.783341894,1,10,1,4
12,4,2,22,8-3-3=2,2,1.804201328,1,10,1,4
12,4,2,23,9-3-6=1,1,1.363431301,1,9,2,3
12,4,2,24,7-2-5=0,2,1.520516493,1,9,2,3
12,4,2,25,8-6-2=1,1,1.411733276,1,10,1,4
12,4,2,26,9-3-5=1,2,1.982223927,1,10,2,4
12,4,2,27,8-2-1=4,1,1.705970723,1,9,2,3
12,4,2,28,9-2-2=5,2,2.369300549,1,9,2,3
12,4,2,29,6-2-3=0,1,2.791717144,1,9,1,3
12,4,2,30,8-3-4=2,1,3.022949193,1,9,2,3
12,4,2,31,6-4-2=1,1,2.005402114,1,10,1,4
12,4,2,32,9-1-6=2,2,2.269209503,1,10,2,4
12,4,2,33,8-1-2=5,2,1.775524457,1,10,2,4
12,4,2,34,8-5-3=0,2,1.322960893,1,9,2,3
12,4,2,35,7-5-2=0,2,1.465879425,1,10,1,4
12,4,2,36,8-2-6=0,2,2.425415707,1,9,2,3
12,4,2,37,9-3-1=4,1,3.459125439,1,9,1,3
12,4,2,38,8-1-3=5,1,1.164057722,1,9,2,3
12,4,2,39,7-1-4=3,1,1.157543313,1,9,2,3
12,4,2,40,6-1-2=4,1,1.395044656,1,9,2,3
12,4,2,41,9-1-5=3,2,1.714530093,1,9,2,3
12,4,2,42,7-3-3=2,1,4.358281991,1,9,1,3
12,4,2,43,7-1-1=5,2,1.705380211,1,9,1,3
12,4,2,44,8-1-1=5,1,3.236534653,1,10,1,4
12,4,2,45,8-2-2=4,2,1.665613457,1,10,1,4
12,4,2,46,9-3-2=5,1,3.535554197,1,9,2,3
12,4,2,47,7-3-4=1,1,1.406974542,1,9,1,3
12,4,2,48,6-1-1=4,2,3.671406,1,9,1,3
12,4,2,49,8-2-5=0,1,2.193245028,1,9,2,3
12,4,2,50,8-3-5=0,2,2.657432297,1,10,1,4
12,4,2,51,9-5-1=3,2,2.233175185,1,10,1,4
12,4,2,52,9-1-3=5,2,1.844071747,1,10,1,4
13,1,1,1,9-2-1=6,1,2.145836541,1,9,1,3
13,1,1,2,9-3-1=5,1,1.46534902,1,10,1,4
13,1,1,3,5-2-3=1,2,1.689219992,1,10,2,4
13,1,1,4,9-3-2=4,1,2.587049475,1,9,2,3
13,1,1,5,9-2-7=0,1,3.235808254,1,10,1,4
13,1,1,6,7-5-2=1,2,4.921461307,1,9,1,3
13,1,1,7,9-3-6=0,1,1.709081107,1,10,2,4
13,1,1,8,7-4-2=0,2,1.121606885,1,9,2,3
13,1,1,9,7-1-1=4,2,2.992670299,1,10,1,4
13,1,1,10,9-2-6=0,2,3.622042545,1,9,1,3
13,1,1,11,8-5-3=1,2,1.968268925,1,9,1,3
13,1,1,12,8-1-2=6,2,1.682782198,1,10,2,4
13,1,1,13,7-1-4=2,1,2.664231045,1,10,2,4
13,1,1,14,5-1-1=2,2,1.821974011,1,9,2,3
13,1,1,15,6-2-3=1,1,1.618630277,1,9,2,3
13,1,1,16,9-5-3=1,1,1.490535762,1,9,2,3
13,1,1,17,9-1-3=4,2,1.838738411,1,10,2,4
13,1,1,18,6-4-2=0,1,1.403856661,1,9,1,3
13,1,1,19,8-5-2=1,1,1.712245344,1,10,1,4
13,1,1,20,9-2-3=5,2,1.693196332,1,10,2,4
13,1,1,21,8-2-2=5,2,1.670390809,1,9,1,3
13,1,1,22,8-2-1=5,1,1.117529536,1,9,2,3
13,1,1,23,8-2-5=1,1,1.233558399,1,10,2,4
13,1,1,24,8-1-4=3,1,2.196231,1,10,1,4
13,1,1,25,8-1-5=2,1,1.384305432,1,10,1,4
13,1,1,26,6-2-4=1,2,1.817839927,1,10,2,4
13,1,1,27,7-2-5=1,2,1.343200756,1,9,1,3
13,1,1,28,8-2-6=1,2,2.083595451,1,9,1,3
13,1,1,29,9-3-4=1,2,1.949100726,1,9,2,3
13,1,1,30,8-3-5=1,2,1.826427486,1,9,1,3
13,1,1,31,8-6-2=0,1,1.248311301,1,9,1,3
13,1,1,32,6-1-1=3,2,1.289345807,1,10,1,4
13,1,1,33,8-3-3=1,2,1.999288277,1,10,2,4
13,1,1,34,9-2-2=4,2,1.272257688,1,9,1,3
