Subj,Cond,Block,Trial,Order,quadrant,eye,face,emotion,Resp,Name,Stim,RT,Correct
1,1,1,1,14,1,1,1,1,30,A,"mask8.avi (170x170)",1381,True
1,1,1,2,36,1,1,1,1,30,A,"mask1.avi (170x170)",1539,True
1,1,1,3,50,1,1,1,2,30,A,"mask1.avi (170x170)",1042,True
1,1,1,4,30,1,1,1,2,30,A,"mask8.avi (170x170)",2139,True
1,1,1,5,89,1,1,1,3,30,A,"mask2.avi (170x170)",2607,True
1,1,1,6,39,1,1,1,3,30,A,"mask4.avi (170x170)",1908,True
1,1,1,7,41,1,1,2,1,30,A,"mask4.avi (170x170)",1563,True
1,1,1,8,190,1,1,2,1,30,A,"mask9.avi (170x170)",3568,True
1,1,1,9,26,1,1,2,2,30,A,"mask4.avi (170x170)",1858,True
1,1,1,10,57,1,1,2,2,30,A,"mask2.avi (170x170)",1180,True
1,1,1,11,93,1,1,2,3,30,A,"mask3.avi (170x170)",1720,True
1,1,1,12,153,1,1,2,3,40,APOSTROPHE,"mask0.avi (170x170)",3125,False
1,1,1,13,85,1,1,3,1,30,A,"mask4.avi (170x170)",1876,True
1,1,1,14,184,1,1,3,1,30,A,"mask6.avi (170x170)",1584,True
1,1,1,15,197,1,1,3,2,30,A,"mask4.avi (170x170)",1592,True
1,1,1,16,95,1,1,3,2,30,A,"mask4.avi (170x170)",1537,True
1,1,1,17,186,1,1,3,3,30,A,"mask7.avi (170x170)",3298,True
1,1,1,18,63,1,1,3,3,30,A,"mask7.avi (170x170)",1701,True
1,1,1,19,18,1,1,4,1,30,A,"mask2.avi (170x170)",1542,True
1,1,1,20,58,1,1,4,1,30,A,"mask2.avi (170x170)",1649,True
1,1,1,21,42,1,1,4,2,30,A,"mask2.avi (170x170)",1258,True
1,1,1,22,194,1,1,4,2,30,A,"mask7.avi (170x170)",2660,True
1,1,1,23,20,1,1,4,3,30,A,"mask7.avi (170x170)",1566,True
1,1,1,24,193,1,1,4,3,40,APOSTROPHE,"mask1.avi (170x170)",1706,False
1,1,1,25,70,2,1,1,1,40,APOSTROPHE,"mask5.avi (170x170)",2573,True
1,1,1,26,113,2,1,1,1,40,APOSTROPHE,"mask2.avi (170x170)",1108,True
1,1,1,27,109,2,1,1,2,40,APOSTROPHE,"mask2.avi (170x170)",2067,True
1,1,1,28,22,2,1,1,2,40,APOSTROPHE,"mask8.avi (170x170)",1202,True
1,1,1,29,133,2,1,1,3,40,APOSTROPHE,"mask4.avi (170x170)",2609,True
1,1,1,30,103,2,1,1,3,40,APOSTROPHE,"mask2.avi (170x170)",1560,True
1,1,1,31,67,2,1,2,1,40,APOSTROPHE,"mask0.avi (170x170)",2234,True
1,1,1,32,187,2,1,2,1,40,APOSTROPHE,"mask2.avi (170x170)",1734,True
1,1,1,33,112,2,1,2,2,40,APOSTROPHE,"mask3.avi (170x170)",1806,True
1,1,1,34,172,2,1,2,2,40,APOSTROPHE,"mask2.avi (170x170)",1495,True
1,1,1,35,27,2,1,2,3,40,APOSTROPHE,"mask1.avi (170x170)",1398,True
1,1,1,36,102,2,1,2,3,40,APOSTROPHE,"mask6.avi (170x170)",2449,True
1,1,1,37,129,2,1,3,1,40,APOSTROPHE,"mask3.avi (170x170)",2410,True
1,1,1,38,146,2,1,3,1,40,APOSTROPHE,"mask4.avi (170x170)",2741,True
1,1,1,39,156,2,1,3,2,40,APOSTROPHE,"mask3.avi (170x170)",1772,True
1,1,1,40,122,2,1,3,2,40,APOSTROPHE,"mask8.avi (170x170)",3373,True
1,1,1,41,96,2,1,3,3,40,APOSTROPHE,"mask3.avi (170x170)",3685,True
1,1,1,42,43,2,1,3,3,30,A,"mask4.avi (170x170)",1438,False
1,1,1,43,56,2,1,4,1,40,APOSTROPHE,"mask3.avi (170x170)",1976,True
1,1,1,44,107,2,1,4,1,40,APOSTROPHE,"mask4.avi (170x170)",1776,True
1,1,1,45,142,2,1,4,2,44,Z,"mask1.avi (170x170)",1497,False
1,1,1,46,31,2,1,4,2,40,APOSTROPHE,"mask2.avi (170x170)",1696,True
1,1,1,47,198,2,1,4,3,40,APOSTROPHE,"mask2.avi (170x170)",1657,True
1,1,1,48,73,2,1,4,3,40,APOSTROPHE,"mask0.avi (170x170)",1439,True
1,1,1,49,13,3,1,1,1,53,/,"mask5.avi (170x170)",2206,True
1,1,1,50,29,3,1,1,1,53,/,"mask3.avi (170x170)",2275,True
1,1,1,51,165,3,1,1,2,53,/,"mask6.avi (170x170)",1496,True
1,1,1,52,105,3,1,1,2,53,/,"mask1.avi (170x170)",2232,True
1,1,1,53,54,3,1,1,3,53,/,"mask9.avi (170x170)",2639,True
1,1,1,54,49,3,1,1,3,53,/,"mask0.avi (170x170)",2433,True
1,1,1,55,152,3,1,2,1,53,/,"mask5.avi (170x170)",3375,True
1,1,1,56,68,3,1,2,1,53,/,"mask3.avi (170x170)",2602,True
1,1,1,57,33,3,1,2,2,53,/,"mask0.avi (170x170)",1224,True
1,1,1,58,45,3,1,2,2,53,/,"mask6.avi (170x170)",1555,True
1,1,1,59,24,3,1,2,3,53,/,"mask7.avi (170x170)",2179,True
1,1,1,60,199,3,1,2,3,53,/,"mask9.avi (170x170)",2199,True
1,1,1,61,125,3,1,3,1,53,/,"mask6.avi (170x170)",2900,True
1,1,1,62,161,3,1,3,1,53,/,"mask6.avi (170x170)",2230,True
1,1,1,63,99,3,1,3,2,40,APOSTROPHE,"mask6.avi (170x170)",1410,False
1,1,1,64,90,3,1,3,2,53,/,"mask6.avi (170x170)",1710,True
1,1,1,65,71,3,1,3,3,53,/,"mask5.avi (170x170)",2522,True
1,1,1,66,162,3,1,3,3,53,/,"mask7.avi (170x170)",1377,True
1,1,1,67,87,3,1,4,1,53,/,"mask0.avi (170x170)",2411,True
1,1,1,68,116,3,1,4,1,53,/,"mask5.avi (170x170)",1953,True
1,1,1,69,159,3,1,4,2,53,/,"mask9.avi (170x170)",1495,True
1,1,1,70,114,3,1,4,2,53,/,"mask7.avi (170x170)",1264,True
1,1,1,71,72,3,1,4,3,53,/,"mask6.avi (170x170)",1018,True
1,1,1,72,164,3,1,4,3,53,/,"mask6.avi (170x170)",1189,True
1,1,1,73,149,4,1,1,1,44,Z,"mask4.avi (170x170)",3618,True
1,1,1,74,124,4,1,1,1,44,Z,"mask0.avi (170x170)",3777,True
1,1,1,75,91,4,1,1,2,44,Z,"mask9.avi (170x170)",2345,True
1,1,1,76,204,4,1,1,2,44,Z,"mask2.avi (170x170)",1433,True
1,1,1,77,135,4,1,1,3,44,Z,"mask7.avi (170x170)",2644,True
1,1,1,78,167,4,1,1,3,44,Z,"mask3.avi (170x170)",1234,True
1,1,1,79,78,4,1,2,1,44,Z,"mask5.avi (170x170)",2032,True
1,1,1,80,128,4,1,2,1,44,Z,"mask4.avi (170x170)",3555,True
1,1,1,81,163,4,1,2,2,30,A,"mask9.avi (170x170)",1966,False
1,1,1,82,55,4,1,2,2,44,Z,"mask3.avi (170x170)",1351,True
1,1,1,83,177,4,1,2,3,53,/,"mask8.avi (170x170)",2545,False
1,1,1,84,119,4,1,2,3,53,/,"mask9.avi (170x170)",1922,False
1,1,1,85,134,4,1,3,1,44,Z,"mask1.avi (170x170)",2055,True
1,1,1,86,158,4,1,3,1,44,Z,"mask7.avi (170x170)",1498,True
1,1,1,87,88,4,1,3,2,44,Z,"mask7.avi (170x170)",1969,True
1,1,1,88,117,4,1,3,2,44,Z,"mask1.avi (170x170)",2257,True
1,1,1,89,196,4,1,3,3,44,Z,"mask5.avi (170x170)",5154,True
1,1,1,90,16,4,1,3,3,44,Z,"mask4.avi (170x170)",2147,True
1,1,1,91,19,4,1,4,1,44,Z,"mask9.avi (170x170)",1297,True
1,1,1,92,127,4,1,4,1,44,Z,"mask5.avi (170x170)",1463,True
1,1,1,93,51,4,1,4,2,44,Z,"mask2.avi (170x170)",1673,True
1,1,1,94,154,4,1,4,2,44,Z,"mask7.avi (170x170)",1777,True
1,1,1,95,32,4,1,4,3,44,Z,"mask8.avi (170x170)",1571,True
1,1,1,96,76,4,1,4,3,44,Z,"mask4.avi (170x170)",1514,True
1,1,1,97,40,1,2,1,1,30,A,"mask8.avi (170x170)",2454,True
1,1,1,98,28,1,2,1,1,30,A,"mask0.avi (170x170)",1792,True
1,1,1,99,100,1,2,1,2,53,/,"mask8.avi (170x170)",15,False
1,1,1,100,183,1,2,1,2,30,A,"mask2.avi (170x170)",1509,True
1,1,1,101,69,1,2,1,3,30,A,"mask5.avi (170x170)",1866,True
1,1,1,102,200,1,2,1,3,30,A,"mask6.avi (170x170)",1015,True
1,1,1,103,108,1,2,2,1,30,A,"mask4.avi (170x170)",1325,True
1,1,1,104,21,1,2,2,1,30,A,"mask7.avi (170x170)",1452,True
1,1,1,105,44,1,2,2,2,30,A,"mask0.avi (170x170)",1134,True
1,1,1,106,173,1,2,2,2,30,A,"mask5.avi (170x170)",1043,True
1,1,1,107,80,1,2,2,3,30,A,"mask5.avi (170x170)",1228,True
1,1,1,108,35,1,2,2,3,30,A,"mask6.avi (170x170)",1724,True
1,1,1,109,155,1,2,3,1,30,A,"mask9.avi (170x170)",1725,True
1,1,1,110,106,1,2,3,1,30,A,"mask0.avi (170x170)",1329,True
1,1,1,111,101,1,2,3,2,30,A,"mask8.avi (170x170)",1229,True
1,1,1,112,66,1,2,3,2,30,A,"mask7.avi (170x170)",3512,True
1,1,1,113,138,1,2,3,3,30,A,"mask1.avi (170x170)",3144,True
1,1,1,114,137,1,2,3,3,30,A,"mask3.avi (170x170)",2539,True
1,1,1,115,34,1,2,4,1,30,A,"mask5.avi (170x170)",1555,True
1,1,1,116,130,1,2,4,1,30,A,"mask7.avi (170x170)",1705,True
1,1,1,117,120,1,2,4,2,30,A,"mask8.avi (170x170)",1921,True
1,1,1,118,185,1,2,4,2,30,A,"mask0.avi (170x170)",1282,True
1,1,1,119,166,1,2,4,3,30,A,"mask6.avi (170x170)",1381,True
1,1,1,120,136,1,2,4,3,30,A,"mask2.avi (170x170)",1075,True
1,1,1,121,195,2,2,1,1,40,APOSTROPHE,"mask6.avi (170x170)",3833,True
1,1,1,122,157,2,2,1,1,40,APOSTROPHE,"mask0.avi (170x170)",4345,True
1,1,1,123,60,2,2,1,2,40,APOSTROPHE,"mask9.avi (170x170)",1527,True
1,1,1,124,180,2,2,1,2,40,APOSTROPHE,"mask3.avi (170x170)",1946,True
1,1,1,125,148,2,2,1,3,40,APOSTROPHE,"mask8.avi (170x170)",1641,True
1,1,1,126,132,2,2,1,3,40,APOSTROPHE,"mask4.avi (170x170)",799,True
1,1,1,127,92,2,2,2,1,40,APOSTROPHE,"mask0.avi (170x170)",3131,True
1,1,1,128,143,2,2,2,1,40,APOSTROPHE,"mask4.avi (170x170)",1486,True
1,1,1,129,83,2,2,2,2,40,APOSTROPHE,"mask6.avi (170x170)",1283,True
1,1,1,130,201,2,2,2,2,30,A,"mask8.avi (170x170)",1301,False
1,1,1,131,174,2,2,2,3,40,APOSTROPHE,"mask6.avi (170x170)",1651,True
1,1,1,132,171,2,2,2,3,40,APOSTROPHE,"mask6.avi (170x170)",1627,True
1,1,1,133,53,2,2,3,1,40,APOSTROPHE,"mask8.avi (170x170)",2518,True
1,1,1,134,131,2,2,3,1,40,APOSTROPHE,"mask8.avi (170x170)",1491,True
1,1,1,135,181,2,2,3,2,40,APOSTROPHE,"mask7.avi (170x170)",2444,True
1,1,1,136,65,2,2,3,2,40,APOSTROPHE,"mask6.avi (170x170)",1838,True
1,1,1,137,46,2,2,3,3,40,APOSTROPHE,"mask0.avi (170x170)",3813,True
1,1,1,138,52,2,2,3,3,40,APOSTROPHE,"mask3.avi (170x170)",1298,True
1,1,1,139,64,2,2,4,1,40,APOSTROPHE,"mask9.avi (170x170)",2208,True
1,1,1,140,150,2,2,4,1,40,APOSTROPHE,"mask9.avi (170x170)",2269,True
1,1,1,141,25,2,2,4,2,40,APOSTROPHE,"mask0.avi (170x170)",2544,True
1,1,1,142,77,2,2,4,2,40,APOSTROPHE,"mask1.avi (170x170)",1923,True
1,1,1,143,139,2,2,4,3,40,APOSTROPHE,"mask0.avi (170x170)",1937,True
1,1,1,144,182,2,2,4,3,40,APOSTROPHE,"mask9.avi (170x170)",1266,True
1,1,1,145,175,3,2,1,1,53,/,"mask8.avi (170x170)",1898,True
1,1,1,146,97,3,2,1,1,53,/,"mask1.avi (170x170)",3876,True
1,1,1,147,59,3,2,1,2,53,/,"mask9.avi (170x170)",1417,True
1,1,1,148,82,3,2,1,2,53,/,"mask2.avi (170x170)",1354,True
1,1,1,149,151,3,2,1,3,53,/,"mask1.avi (170x170)",3761,True
1,1,1,150,141,3,2,1,3,53,/,"mask9.avi (170x170)",4064,True
1,1,1,151,140,3,2,2,1,53,/,"mask4.avi (170x170)",3550,True
1,1,1,152,168,3,2,2,1,53,/,"mask3.avi (170x170)",1299,True
1,1,1,153,75,3,2,2,2,53,/,"mask1.avi (170x170)",1542,True
1,1,1,154,38,3,2,2,2,53,/,"mask3.avi (170x170)",2205,True
1,1,1,155,111,3,2,2,3,53,/,"mask8.avi (170x170)",3208,True
1,1,1,156,170,3,2,2,3,53,/,"mask1.avi (170x170)",3156,True
1,1,1,157,17,3,2,3,1,53,/,"mask9.avi (170x170)",1237,True
1,1,1,158,189,3,2,3,1,53,/,"mask3.avi (170x170)",2230,True
1,1,1,159,144,3,2,3,2,53,/,"mask3.avi (170x170)",1157,True
1,1,1,160,203,3,2,3,2,44,Z,"mask5.avi (170x170)",1740,False
1,1,1,161,115,3,2,3,3,44,Z,"mask8.avi (170x170)",3843,False
1,1,1,162,94,3,2,3,3,53,/,"mask7.avi (170x170)",3714,True
1,1,1,163,15,3,2,4,1,53,/,"mask6.avi (170x170)",1394,True
1,1,1,164,74,3,2,4,1,53,/,"mask9.avi (170x170)",1408,True
1,1,1,165,118,3,2,4,2,53,/,"mask3.avi (170x170)",2293,True
1,1,1,166,160,3,2,4,2,53,/,"mask1.avi (170x170)",2427,True
1,1,1,167,123,3,2,4,3,53,/,"mask3.avi (170x170)",1593,True
1,1,1,168,47,3,2,4,3,53,/,"mask1.avi (170x170)",3175,True
1,1,1,169,126,4,2,1,1,44,Z,"mask2.avi (170x170)",1728,True
1,1,1,170,48,4,2,1,1,44,Z,"mask0.avi (170x170)",3572,True
1,1,1,171,104,4,2,1,2,44,Z,"mask7.avi (170x170)",2880,True
1,1,1,172,61,4,2,1,2,44,Z,"mask4.avi (170x170)",3772,True
1,1,1,173,84,4,2,1,3,44,Z,"mask2.avi (170x170)",3066,True
1,1,1,174,81,4,2,1,3,44,Z,"mask1.avi (170x170)",1863,True
1,1,1,175,23,4,2,2,1,44,Z,"mask0.avi (170x170)",2064,True
1,1,1,176,110,4,2,2,1,44,Z,"mask5.avi (170x170)",2222,True
1,1,1,177,179,4,2,2,2,44,Z,"mask2.avi (170x170)",1732,True
1,1,1,178,202,4,2,2,2,44,Z,"mask7.avi (170x170)",1224,True
1,1,1,179,79,4,2,2,3,44,Z,"mask8.avi (170x170)",1225,True
1,1,1,180,62,4,2,2,3,44,Z,"mask9.avi (170x170)",2546,True
1,1,1,181,188,4,2,3,1,44,Z,"mask5.avi (170x170)",1067,True
1,1,1,182,145,4,2,3,1,44,Z,"mask8.avi (170x170)",1645,True
1,1,1,183,86,4,2,3,2,44,Z,"mask1.avi (170x170)",2045,True
1,1,1,184,169,4,2,3,2,44,Z,"mask5.avi (170x170)",1294,True
1,1,1,185,147,4,2,3,3,44,Z,"mask7.avi (170x170)",1792,True
1,1,1,186,98,4,2,3,3,44,Z,"mask1.avi (170x170)",1530,True
1,1,1,187,178,4,2,4,1,44,Z,"mask9.avi (170x170)",996,True
1,1,1,188,121,4,2,4,1,44,Z,"mask5.avi (170x170)",2497,True
1,1,1,189,176,4,2,4,2,44,Z,"mask5.avi (170x170)",1270,True
1,1,1,190,37,4,2,4,2,44,Z,"mask1.avi (170x170)",1416,True
1,1,1,191,192,4,2,4,3,44,Z,"mask5.avi (170x170)",1072,True
1,1,1,192,191,4,2,4,3,44,Z,"mask0.avi (170x170)",1037,True
10,1,1,1,69,1,1,1,1,30,A,"mask8.avi (170x170)",1755,True
10,1,1,2,95,1,1,1,1,30,A,"mask1.avi (170x170)",1702,True
10,1,1,3,136,1,1,1,2,30,A,"mask1.avi (170x170)",1494,True
10,1,1,4,71,1,1,1,2,30,A,"mask8.avi (170x170)",1809,True
10,1,1,5,137,1,1,1,3,30,A,"mask2.avi (170x170)",2276,True
10,1,1,6,149,1,1,1,3,30,A,"mask4.avi (170x170)",1540,True
10,1,1,7,36,1,1,2,1,30,A,"mask4.avi (170x170)",1666,True
10,1,1,8,165,1,1,2,1,30,A,"mask9.avi (170x170)",1431,True
10,1,1,9,31,1,1,2,2,30,A,"mask4.avi (170x170)",1467,True
10,1,1,10,147,1,1,2,2,30,A,"mask2.avi (170x170)",1185,True
10,1,1,11,113,1,1,2,3,30,A,"mask3.avi (170x170)",1704,True
10,1,1,12,18,1,1,2,3,30,A,"mask0.avi (170x170)",1200,True
10,1,1,13,177,1,1,3,1,30,A,"mask4.avi (170x170)",2820,True
10,1,1,14,178,1,1,3,1,30,A,"mask6.avi (170x170)",1609,True
10,1,1,15,96,1,1,3,2,30,A,"mask4.avi (170x170)",1665,True
10,1,1,16,13,1,1,3,2,30,A,"mask4.avi (170x170)",1435,True
10,1,1,17,43,1,1,3,3,30,A,"mask7.avi (170x170)",1734,True
10,1,1,18,93,1,1,3,3,30,A,"mask7.avi (170x170)",1374,True
10,1,1,19,77,1,1,4,1,30,A,"mask2.avi (170x170)",1447,True
10,1,1,20,186,1,1,4,1,30,A,"mask2.avi (170x170)",1233,True
10,1,1,21,49,1,1,4,2,30,A,"mask2.avi (170x170)",1459,True
10,1,1,22,102,1,1,4,2,30,A,"mask7.avi (170x170)",1742,True
10,1,1,23,68,1,1,4,3,30,A,"mask7.avi (170x170)",1564,True
10,1,1,24,170,1,1,4,3,30,A,"mask1.avi (170x170)",2351,True
10,1,1,25,100,2,1,1,1,40,APOSTROPHE,"mask5.avi (170x170)",1827,True
10,1,1,26,92,2,1,1,1,40,APOSTROPHE,"mask2.avi (170x170)",2439,True
10,1,1,27,121,2,1,1,2,40,APOSTROPHE,"mask2.avi (170x170)",2404,True
10,1,1,28,90,2,1,1,2,40,APOSTROPHE,"mask8.avi (170x170)",2032,True
10,1,1,29,21,2,1,1,3,40,APOSTROPHE,"mask4.avi (170x170)",1548,True
10,1,1,30,54,2,1,1,3,40,APOSTROPHE,"mask2.avi (170x170)",2705,True
10,1,1,31,60,2,1,2,1,40,APOSTROPHE,"mask0.avi (170x170)",1776,True
10,1,1,32,27,2,1,2,1,40,APOSTROPHE,"mask2.avi (170x170)",1660,True
10,1,1,33,152,2,1,2,2,40,APOSTROPHE,"mask3.avi (170x170)",1405,True
10,1,1,34,129,2,1,2,2,40,APOSTROPHE,"mask2.avi (170x170)",1302,True
10,1,1,35,135,2,1,2,3,40,APOSTROPHE,"mask1.avi (170x170)",1458,True
10,1,1,36,157,2,1,2,3,40,APOSTROPHE,"mask6.avi (170x170)",1658,True
10,1,1,37,26,2,1,3,1,40,APOSTROPHE,"mask3.avi (170x170)",1395,True
10,1,1,38,84,2,1,3,1,40,APOSTROPHE,"mask4.avi (170x170)",1480,True
10,1,1,39,196,2,1,3,2,40,APOSTROPHE,"mask3.avi (170x170)",1275,True
10,1,1,40,148,2,1,3,2,40,APOSTROPHE,"mask8.avi (170x170)",1212,True
10,1,1,41,161,2,1,3,3,40,APOSTROPHE,"mask3.avi (170x170)",3981,True
10,1,1,42,104,2,1,3,3,40,APOSTROPHE,"mask4.avi (170x170)",3190,True
10,1,1,43,183,2,1,4,1,40,APOSTROPHE,"mask3.avi (170x170)",2779,True
10,1,1,44,107,2,1,4,1,40,APOSTROPHE,"mask4.avi (170x170)",1949,True
10,1,1,45,46,2,1,4,2,40,APOSTROPHE,"mask1.avi (170x170)",2124,True
10,1,1,46,88,2,1,4,2,40,APOSTROPHE,"mask2.avi (170x170)",1494,True
10,1,1,47,187,2,1,4,3,40,APOSTROPHE,"mask2.avi (170x170)",1715,True
10,1,1,48,34,2,1,4,3,40,APOSTROPHE,"mask0.avi (170x170)",1418,True
10,1,1,49,158,3,1,1,1,53,/,"mask5.avi (170x170)",1749,True
10,1,1,50,119,3,1,1,1,53,/,"mask3.avi (170x170)",1769,True
10,1,1,51,156,3,1,1,2,53,/,"mask6.avi (170x170)",1550,True
10,1,1,52,164,3,1,1,2,53,/,"mask1.avi (170x170)",1877,True
10,1,1,53,67,3,1,1,3,53,/,"mask9.avi (170x170)",1895,True
10,1,1,54,118,3,1,1,3,53,/,"mask0.avi (170x170)",1751,True
10,1,1,55,55,3,1,2,1,53,/,"mask5.avi (170x170)",1476,True
10,1,1,56,25,3,1,2,1,53,/,"mask3.avi (170x170)",1485,True
10,1,1,57,172,3,1,2,2,53,/,"mask0.avi (170x170)",1392,True
10,1,1,58,202,3,1,2,2,53,/,"mask6.avi (170x170)",1641,True
10,1,1,59,56,3,1,2,3,53,/,"mask7.avi (170x170)",1885,True
10,1,1,60,24,3,1,2,3,53,/,"mask9.avi (170x170)",1464,True
10,1,1,61,115,3,1,3,1,53,/,"mask6.avi (170x170)",1668,True
10,1,1,62,150,3,1,3,1,53,/,"mask6.avi (170x170)",1488,True
10,1,1,63,91,3,1,3,2,53,/,"mask6.avi (170x170)",2779,True
10,1,1,64,191,3,1,3,2,53,/,"mask6.avi (170x170)",1930,True
10,1,1,65,110,3,1,3,3,53,/,"mask5.avi (170x170)",1385,True
10,1,1,66,124,3,1,3,3,53,/,"mask7.avi (170x170)",1676,True
10,1,1,67,66,3,1,4,1,53,/,"mask0.avi (170x170)",1289,True
10,1,1,68,64,3,1,4,1,53,/,"mask5.avi (170x170)",2592,True
10,1,1,69,63,3,1,4,2,53,/,"mask9.avi (170x170)",1619,True
10,1,1,70,130,3,1,4,2,53,/,"mask7.avi (170x170)",1336,True
10,1,1,71,47,3,1,4,3,53,/,"mask6.avi (170x170)",1675,True
10,1,1,72,65,3,1,4,3,53,/,"mask6.avi (170x170)",2082,True
10,1,1,73,83,4,1,1,1,44,Z,"mask4.avi (170x170)",2160,True
10,1,1,74,32,4,1,1,1,44,Z,"mask0.avi (170x170)",1734,True
10,1,1,75,82,4,1,1,2,44,Z,"mask9.avi (170x170)",1558,True
10,1,1,76,72,4,1,1,2,44,Z,"mask2.avi (170x170)",1359,True
10,1,1,77,139,4,1,1,3,44,Z,"mask7.avi (170x170)",1758,True
10,1,1,78,15,4,1,1,3,44,Z,"mask3.avi (170x170)",2122,True
10,1,1,79,103,4,1,2,1,44,Z,"mask5.avi (170x170)",2217,True
10,1,1,80,138,4,1,2,1,44,Z,"mask4.avi (170x170)",2028,True
10,1,1,81,197,4,1,2,2,44,Z,"mask9.avi (170x170)",1173,True
10,1,1,82,87,4,1,2,2,44,Z,"mask3.avi (170x170)",2116,True
10,1,1,83,86,4,1,2,3,44,Z,"mask8.avi (170x170)",1834,True
10,1,1,84,20,4,1,2,3,44,Z,"mask9.avi (170x170)",1655,True
10,1,1,85,140,4,1,3,1,44,Z,"mask1.avi (170x170)",2575,True
10,1,1,86,145,4,1,3,1,44,Z,"mask7.avi (170x170)",1506,True
10,1,1,87,58,4,1,3,2,44,Z,"mask7.avi (170x170)",1602,True
10,1,1,88,89,4,1,3,2,44,Z,"mask1.avi (170x170)",1698,True
10,1,1,89,142,4,1,3,3,44,Z,"mask5.avi (170x170)",3594,True
10,1,1,90,106,4,1,3,3,44,Z,"mask4.avi (170x170)",2436,True
10,1,1,91,41,4,1,4,1,44,Z,"mask9.avi (170x170)",1418,True
10,1,1,92,171,4,1,4,1,44,Z,"mask5.avi (170x170)",1591,True
10,1,1,93,75,4,1,4,2,44,Z,"mask2.avi (170x170)",1375,True
10,1,1,94,76,4,1,4,2,44,Z,"mask7.avi (170x170)",1508,True
10,1,1,95,174,4,1,4,3,44,Z,"mask8.avi (170x170)",1825,True
10,1,1,96,189,4,1,4,3,44,Z,"mask4.avi (170x170)",1738,True
10,1,1,97,141,1,2,1,1,30,A,"mask8.avi (170x170)",1963,True
10,1,1,98,109,1,2,1,1,30,A,"mask0.avi (170x170)",2153,True
10,1,1,99,23,1,2,1,2,30,A,"mask8.avi (170x170)",1623,True
10,1,1,100,112,1,2,1,2,30,A,"mask2.avi (170x170)",2090,True
10,1,1,101,53,1,2,1,3,30,A,"mask5.avi (170x170)",1891,True
10,1,1,102,123,1,2,1,3,30,A,"mask6.avi (170x170)",1484,True
10,1,1,103,200,1,2,2,1,30,A,"mask4.avi (170x170)",1451,True
10,1,1,104,61,1,2,2,1,30,A,"mask7.avi (170x170)",1574,True
10,1,1,105,105,1,2,2,2,30,A,"mask0.avi (170x170)",1576,True
10,1,1,106,153,1,2,2,2,30,A,"mask5.avi (170x170)",1283,True
10,1,1,107,198,1,2,2,3,30,A,"mask5.avi (170x170)",1405,True
10,1,1,108,195,1,2,2,3,30,A,"mask6.avi (170x170)",1715,True
10,1,1,109,133,1,2,3,1,30,A,"mask9.avi (170x170)",2032,True
10,1,1,110,48,1,2,3,1,30,A,"mask0.avi (170x170)",1491,True
10,1,1,111,114,1,2,3,2,30,A,"mask8.avi (170x170)",1396,True
10,1,1,112,180,1,2,3,2,30,A,"mask7.avi (170x170)",2519,True
10,1,1,113,131,1,2,3,3,30,A,"mask1.avi (170x170)",3822,True
10,1,1,114,122,1,2,3,3,30,A,"mask3.avi (170x170)",1546,True
10,1,1,115,168,1,2,4,1,30,A,"mask5.avi (170x170)",1599,True
10,1,1,116,159,1,2,4,1,30,A,"mask7.avi (170x170)",1863,True
10,1,1,117,151,1,2,4,2,30,A,"mask8.avi (170x170)",1615,True
10,1,1,118,108,1,2,4,2,30,A,"mask0.avi (170x170)",1760,True
10,1,1,119,16,1,2,4,3,30,A,"mask6.avi (170x170)",1314,True
10,1,1,120,57,1,2,4,3,30,A,"mask2.avi (170x170)",1891,True
10,1,1,121,120,2,2,1,1,40,APOSTROPHE,"mask6.avi (170x170)",2535,True
10,1,1,122,22,2,2,1,1,40,APOSTROPHE,"mask0.avi (170x170)",1998,True
10,1,1,123,19,2,2,1,2,40,APOSTROPHE,"mask9.avi (170x170)",1698,True
10,1,1,124,37,2,2,1,2,40,APOSTROPHE,"mask3.avi (170x170)",1420,True
10,1,1,125,126,2,2,1,3,40,APOSTROPHE,"mask8.avi (170x170)",3069,True
10,1,1,126,204,2,2,1,3,40,APOSTROPHE,"mask4.avi (170x170)",2650,True
10,1,1,127,143,2,2,2,1,40,APOSTROPHE,"mask0.avi (170x170)",2033,True
10,1,1,128,81,2,2,2,1,40,APOSTROPHE,"mask4.avi (170x170)",2247,True
10,1,1,129,193,2,2,2,2,40,APOSTROPHE,"mask6.avi (170x170)",1649,True
10,1,1,130,39,2,2,2,2,40,APOSTROPHE,"mask8.avi (170x170)",1769,True
10,1,1,131,74,2,2,2,3,40,APOSTROPHE,"mask6.avi (170x170)",1609,True
10,1,1,132,33,2,2,2,3,40,APOSTROPHE,"mask6.avi (170x170)",1563,True
10,1,1,133,99,2,2,3,1,40,APOSTROPHE,"mask8.avi (170x170)",3686,True
10,1,1,134,73,2,2,3,1,40,APOSTROPHE,"mask8.avi (170x170)",2432,True
10,1,1,135,194,2,2,3,2,40,APOSTROPHE,"mask7.avi (170x170)",1624,True
10,1,1,136,185,2,2,3,2,40,APOSTROPHE,"mask6.avi (170x170)",1762,True
10,1,1,137,28,2,2,3,3,40,APOSTROPHE,"mask0.avi (170x170)",1585,True
10,1,1,138,111,2,2,3,3,40,APOSTROPHE,"mask3.avi (170x170)",2604,True
10,1,1,139,190,2,2,4,1,40,APOSTROPHE,"mask9.avi (170x170)",1511,True
10,1,1,140,40,2,2,4,1,40,APOSTROPHE,"mask9.avi (170x170)",1481,True
10,1,1,141,176,2,2,4,2,40,APOSTROPHE,"mask0.avi (170x170)",1426,True
10,1,1,142,162,2,2,4,2,40,APOSTROPHE,"mask1.avi (170x170)",1272,True
10,1,1,143,184,2,2,4,3,40,APOSTROPHE,"mask0.avi (170x170)",1103,True
10,1,1,144,80,2,2,4,3,40,APOSTROPHE,"mask9.avi (170x170)",2590,True
10,1,1,145,50,3,2,1,1,53,/,"mask8.avi (170x170)",2639,True
10,1,1,146,144,3,2,1,1,53,/,"mask1.avi (170x170)",3081,True
10,1,1,147,116,3,2,1,2,53,/,"mask9.avi (170x170)",1408,True
10,1,1,148,173,3,2,1,2,53,/,"mask2.avi (170x170)",1929,True
10,1,1,149,94,3,2,1,3,53,/,"mask1.avi (170x170)",3188,True
10,1,1,150,117,3,2,1,3,53,/,"mask9.avi (170x170)",1718,True
10,1,1,151,154,3,2,2,1,53,/,"mask4.avi (170x170)",1578,True
10,1,1,152,182,3,2,2,1,53,/,"mask3.avi (170x170)",1714,True
10,1,1,153,78,3,2,2,2,53,/,"mask1.avi (170x170)",1485,True
10,1,1,154,163,3,2,2,2,53,/,"mask3.avi (170x170)",1937,True
10,1,1,155,128,3,2,2,3,53,/,"mask8.avi (170x170)",1778,True
10,1,1,156,59,3,2,2,3,53,/,"mask1.avi (170x170)",2250,True
10,1,1,157,98,3,2,3,1,53,/,"mask9.avi (170x170)",1736,True
10,1,1,158,181,3,2,3,1,53,/,"mask3.avi (170x170)",2455,True
10,1,1,159,62,3,2,3,2,53,/,"mask3.avi (170x170)",1673,True
10,1,1,160,179,3,2,3,2,53,/,"mask5.avi (170x170)",1648,True
10,1,1,161,14,3,2,3,3,40,APOSTROPHE,"mask8.avi (170x170)",3092,False
10,1,1,162,45,3,2,3,3,53,/,"mask7.avi (170x170)",2145,True
10,1,1,163,146,3,2,4,1,53,/,"mask6.avi (170x170)",1301,True
10,1,1,164,79,3,2,4,1,53,/,"mask9.avi (170x170)",1477,True
10,1,1,165,127,3,2,4,2,53,/,"mask3.avi (170x170)",1383,True
10,1,1,166,35,3,2,4,2,53,/,"mask1.avi (170x170)",1343,True
10,1,1,167,167,3,2,4,3,53,/,"mask3.avi (170x170)",2249,True
10,1,1,168,192,3,2,4,3,53,/,"mask1.avi (170x170)",1200,True
10,1,1,169,85,4,2,1,1,44,Z,"mask2.avi (170x170)",2145,True
10,1,1,170,38,4,2,1,1,44,Z,"mask0.avi (170x170)",1721,True
10,1,1,171,155,4,2,1,2,44,Z,"mask7.avi (170x170)",1728,True
10,1,1,172,166,4,2,1,2,44,Z,"mask4.avi (170x170)",1483,True
10,1,1,173,132,4,2,1,3,44,Z,"mask2.avi (170x170)",2242,True
10,1,1,174,125,4,2,1,3,44,Z,"mask1.avi (170x170)",2596,True
10,1,1,175,199,4,2,2,1,44,Z,"mask0.avi (170x170)",1435,True
10,1,1,176,97,4,2,2,1,44,Z,"mask5.avi (170x170)",2293,True
10,1,1,177,44,4,2,2,2,44,Z,"mask2.avi (170x170)",1122,True
10,1,1,178,101,4,2,2,2,44,Z,"mask7.avi (170x170)",1398,True
10,1,1,179,17,4,2,2,3,44,Z,"mask8.avi (170x170)",1891,True
10,1,1,180,169,4,2,2,3,44,Z,"mask9.avi (170x170)",2679,True
10,1,1,181,52,4,2,3,1,44,Z,"mask5.avi (170x170)",2183,True
10,1,1,182,42,4,2,3,1,44,Z,"mask8.avi (170x170)",1326,True
10,1,1,183,201,4,2,3,2,44,Z,"mask1.avi (170x170)",1440,True
10,1,1,184,29,4,2,3,2,44,Z,"mask5.avi (170x170)",1724,True
10,1,1,185,203,4,2,3,3,44,Z,"mask7.avi (170x170)",1521,True
10,1,1,186,175,4,2,3,3,44,Z,"mask1.avi (170x170)",2523,True
10,1,1,187,160,4,2,4,1,44,Z,"mask9.avi (170x170)",1667,True
10,1,1,188,70,4,2,4,1,44,Z,"mask5.avi (170x170)",1579,True
10,1,1,189,30,4,2,4,2,44,Z,"mask5.avi (170x170)",1514,True
10,1,1,190,188,4,2,4,2,30,A,"mask1.avi (170x170)",1363,False
10,1,1,191,51,4,2,4,3,30,A,"mask5.avi (170x170)",1478,False
10,1,1,192,134,4,2,4,3,44,Z,"mask0.avi (170x170)",1801,True
11,1,1,1,102,1,1,1,1,30,A,"mask8.avi (170x170)",1684,True
11,1,1,2,147,1,1,1,1,30,A,"mask1.avi (170x170)",1595,True
11,1,1,3,13,1,1,1,2,30,A,"mask1.avi (170x170)",1342,True
11,1,1,4,42,1,1,1,2,30,A,"mask8.avi (170x170)",2170,True
11,1,1,5,131,1,1,1,3,30,A,"mask2.avi (170x170)",3993,True
11,1,1,6,146,1,1,1,3,30,A,"mask4.avi (170x170)",1886,True
11,1,1,7,34,1,1,2,1,30,A,"mask4.avi (170x170)",2856,True
11,1,1,8,193,1,1,2,1,30,A,"mask9.avi (170x170)",1371,True
11,1,1,9,56,1,1,2,2,30,A,"mask4.avi (170x170)",1786,True
11,1,1,10,108,1,1,2,2,30,A,"mask2.avi (170x170)",1662,True
11,1,1,11,29,1,1,2,3,30,A,"mask3.avi (170x170)",2001,True
11,1,1,12,195,1,1,2,3,30,A,"mask0.avi (170x170)",1603,True
11,1,1,13,105,1,1,3,1,30,A,"mask4.avi (170x170)",2840,True
11,1,1,14,126,1,1,3,1,30,A,"mask6.avi (170x170)",1687,True
11,1,1,15,49,1,1,3,2,30,A,"mask4.avi (170x170)",3386,True
11,1,1,16,87,1,1,3,2,30,A,"mask4.avi (170x170)",1809,True
11,1,1,17,95,1,1,3,3,30,A,"mask7.avi (170x170)",2633,True
11,1,1,18,81,1,1,3,3,30,A,"mask7.avi (170x170)",2498,True
11,1,1,19,187,1,1,4,1,30,A,"mask2.avi (170x170)",1811,True
11,1,1,20,84,1,1,4,1,30,A,"mask2.avi (170x170)",1682,True
11,1,1,21,132,1,1,4,2,30,A,"mask2.avi (170x170)",1305,True
11,1,1,22,120,1,1,4,2,30,A,"mask7.avi (170x170)",1503,True
11,1,1,23,59,1,1,4,3,30,A,"mask7.avi (170x170)",1826,True
11,1,1,24,92,1,1,4,3,30,A,"mask1.avi (170x170)",1687,True
11,1,1,25,174,2,1,1,1,40,APOSTROPHE,"mask5.avi (170x170)",2428,True
11,1,1,26,160,2,1,1,1,40,APOSTROPHE,"mask2.avi (170x170)",1680,True
11,1,1,27,144,2,1,1,2,40,APOSTROPHE,"mask2.avi (170x170)",2596,True
11,1,1,28,82,2,1,1,2,40,APOSTROPHE,"mask8.avi (170x170)",3110,True
11,1,1,29,43,2,1,1,3,40,APOSTROPHE,"mask4.avi (170x170)",5833,True
11,1,1,30,130,2,1,1,3,40,APOSTROPHE,"mask2.avi (170x170)",4012,True
11,1,1,31,32,2,1,2,1,40,APOSTROPHE,"mask0.avi (170x170)",1518,True
11,1,1,32,163,2,1,2,1,40,APOSTROPHE,"mask2.avi (170x170)",2138,True
11,1,1,33,19,2,1,2,2,40,APOSTROPHE,"mask3.avi (170x170)",1700,True
11,1,1,34,188,2,1,2,2,40,APOSTROPHE,"mask2.avi (170x170)",1920,True
11,1,1,35,113,2,1,2,3,40,APOSTROPHE,"mask1.avi (170x170)",1946,True
11,1,1,36,98,2,1,2,3,40,APOSTROPHE,"mask6.avi (170x170)",2305,True
11,1,1,37,53,2,1,3,1,40,APOSTROPHE,"mask3.avi (170x170)",1708,True
11,1,1,38,14,2,1,3,1,40,APOSTROPHE,"mask4.avi (170x170)",2985,True
11,1,1,39,145,2,1,3,2,40,APOSTROPHE,"mask3.avi (170x170)",2076,True
11,1,1,40,104,2,1,3,2,40,APOSTROPHE,"mask8.avi (170x170)",3821,True
11,1,1,41,30,2,1,3,3,40,APOSTROPHE,"mask3.avi (170x170)",1881,True
11,1,1,42,107,2,1,3,3,40,APOSTROPHE,"mask4.avi (170x170)",2689,True
11,1,1,43,134,2,1,4,1,40,APOSTROPHE,"mask3.avi (170x170)",1576,True
11,1,1,44,65,2,1,4,1,40,APOSTROPHE,"mask4.avi (170x170)",1507,True
11,1,1,45,79,2,1,4,2,40,APOSTROPHE,"mask1.avi (170x170)",1818,True
11,1,1,46,122,2,1,4,2,40,APOSTROPHE,"mask2.avi (170x170)",2242,True
11,1,1,47,61,2,1,4,3,40,APOSTROPHE,"mask2.avi (170x170)",1293,True
11,1,1,48,38,2,1,4,3,40,APOSTROPHE,"mask0.avi (170x170)",3756,True
11,1,1,49,76,3,1,1,1,53,/,"mask5.avi (170x170)",3220,True
11,1,1,50,25,3,1,1,1,53,/,"mask3.avi (170x170)",2026,True
11,1,1,51,204,3,1,1,2,53,/,"mask6.avi (170x170)",2230,True
11,1,1,52,111,3,1,1,2,53,/,"mask1.avi (170x170)",1865,True
11,1,1,53,192,3,1,1,3,53,/,"mask9.avi (170x170)",2294,True
11,1,1,54,194,3,1,1,3,53,/,"mask0.avi (170x170)",2594,True
11,1,1,55,64,3,1,2,1,53,/,"mask5.avi (170x170)",2634,True
11,1,1,56,202,3,1,2,1,53,/,"mask3.avi (170x170)",2450,True
11,1,1,57,173,3,1,2,2,53,/,"mask0.avi (170x170)",1475,True
11,1,1,58,172,3,1,2,2,53,/,"mask6.avi (170x170)",1604,True
11,1,1,59,197,3,1,2,3,53,/,"mask7.avi (170x170)",3290,True
11,1,1,60,40,3,1,2,3,53,/,"mask9.avi (170x170)",839,True
11,1,1,61,109,3,1,3,1,53,/,"mask6.avi (170x170)",2329,True
11,1,1,62,135,3,1,3,1,53,/,"mask6.avi (170x170)",3276,True
11,1,1,63,159,3,1,3,2,53,/,"mask6.avi (170x170)",2209,True
11,1,1,64,85,3,1,3,2,53,/,"mask6.avi (170x170)",2513,True
11,1,1,65,150,3,1,3,3,53,/,"mask5.avi (170x170)",1815,True
11,1,1,66,170,3,1,3,3,53,/,"mask7.avi (170x170)",2435,True
11,1,1,67,169,3,1,4,1,53,/,"mask0.avi (170x170)",2223,True
11,1,1,68,94,3,1,4,1,53,/,"mask5.avi (170x170)",3314,True
11,1,1,69,68,3,1,4,2,53,/,"mask9.avi (170x170)",1635,True
11,1,1,70,39,3,1,4,2,53,/,"mask7.avi (170x170)",1267,True
11,1,1,71,157,3,1,4,3,53,/,"mask6.avi (170x170)",3584,True
11,1,1,72,117,3,1,4,3,53,/,"mask6.avi (170x170)",1755,True
11,1,1,73,110,4,1,1,1,44,Z,"mask4.avi (170x170)",3104,True
11,1,1,74,168,4,1,1,1,44,Z,"mask0.avi (170x170)",4043,True
11,1,1,75,33,4,1,1,2,53,/,"mask9.avi (170x170)",1319,False
11,1,1,76,88,4,1,1,2,44,Z,"mask2.avi (170x170)",2176,True
11,1,1,77,28,4,1,1,3,44,Z,"mask7.avi (170x170)",1510,True
11,1,1,78,156,4,1,1,3,44,Z,"mask3.avi (170x170)",2802,True
11,1,1,79,127,4,1,2,1,44,Z,"mask5.avi (170x170)",1422,True
11,1,1,80,58,4,1,2,1,44,Z,"mask4.avi (170x170)",1852,True
11,1,1,81,185,4,1,2,2,44,Z,"mask9.avi (170x170)",1829,True
11,1,1,82,155,4,1,2,2,44,Z,"mask3.avi (170x170)",3054,True
11,1,1,83,36,4,1,2,3,44,Z,"mask8.avi (170x170)",1361,True
11,1,1,84,77,4,1,2,3,44,Z,"mask9.avi (170x170)",2183,True
11,1,1,85,180,4,1,3,1,44,Z,"mask1.avi (170x170)",2143,True
11,1,1,86,119,4,1,3,1,44,Z,"mask7.avi (170x170)",2899,True
11,1,1,87,47,4,1,3,2,44,Z,"mask7.avi (170x170)",3476,True
11,1,1,88,114,4,1,3,2,44,Z,"mask1.avi (170x170)",1468,True
11,1,1,89,203,4,1,3,3,44,Z,"mask5.avi (170x170)",2608,True
11,1,1,90,45,4,1,3,3,44,Z,"mask4.avi (170x170)",1868,True
11,1,1,91,123,4,1,4,1,44,Z,"mask9.avi (170x170)",1402,True
11,1,1,92,118,4,1,4,1,44,Z,"mask5.avi (170x170)",1604,True
11,1,1,93,60,4,1,4,2,44,Z,"mask2.avi (170x170)",2156,True
11,1,1,94,133,4,1,4,2,44,Z,"mask7.avi (170x170)",2220,True
11,1,1,95,73,4,1,4,3,44,Z,"mask8.avi (170x170)",1775,True
11,1,1,96,50,4,1,4,3,44,Z,"mask4.avi (170x170)",2140,True
11,1,1,97,21,1,2,1,1,30,A,"mask8.avi (170x170)",5642,True
11,1,1,98,129,1,2,1,1,30,A,"mask0.avi (170x170)",3556,True
11,1,1,99,179,1,2,1,2,30,A,"mask8.avi (170x170)",1419,True
11,1,1,100,115,1,2,1,2,30,A,"mask2.avi (170x170)",2335,True
11,1,1,101,181,1,2,1,3,30,A,"mask5.avi (170x170)",1762,True
11,1,1,102,190,1,2,1,3,30,A,"mask6.avi (170x170)",2953,True
11,1,1,103,186,1,2,2,1,30,A,"mask4.avi (170x170)",2192,True
11,1,1,104,199,1,2,2,1,30,A,"mask7.avi (170x170)",2251,True
11,1,1,105,48,1,2,2,2,30,A,"mask0.avi (170x170)",2684,True
11,1,1,106,201,1,2,2,2,30,A,"mask5.avi (170x170)",2453,True
11,1,1,107,175,1,2,2,3,40,APOSTROPHE,"mask5.avi (170x170)",2261,False
11,1,1,108,18,1,2,2,3,30,A,"mask6.avi (170x170)",5018,True
11,1,1,109,161,1,2,3,1,30,A,"mask9.avi (170x170)",4344,True
11,1,1,110,189,1,2,3,1,30,A,"mask0.avi (170x170)",1921,True
11,1,1,111,72,1,2,3,2,30,A,"mask8.avi (170x170)",2508,True
11,1,1,112,54,1,2,3,2,30,A,"mask7.avi (170x170)",1726,True
11,1,1,113,139,1,2,3,3,30,A,"mask1.avi (170x170)",4697,True
11,1,1,114,101,1,2,3,3,30,A,"mask3.avi (170x170)",1685,True
11,1,1,115,138,1,2,4,1,30,A,"mask5.avi (170x170)",5895,True
11,1,1,116,196,1,2,4,1,30,A,"mask7.avi (170x170)",2921,True
11,1,1,117,71,1,2,4,2,30,A,"mask8.avi (170x170)",1466,True
11,1,1,118,89,1,2,4,2,30,A,"mask0.avi (170x170)",1884,True
11,1,1,119,62,1,2,4,3,30,A,"mask6.avi (170x170)",1474,True
11,1,1,120,86,1,2,4,3,30,A,"mask2.avi (170x170)",2753,True
11,1,1,121,67,2,2,1,1,40,APOSTROPHE,"mask6.avi (170x170)",1484,True
11,1,1,122,80,2,2,1,1,40,APOSTROPHE,"mask0.avi (170x170)",1743,True
11,1,1,123,16,2,2,1,2,40,APOSTROPHE,"mask9.avi (170x170)",3688,True
11,1,1,124,100,2,2,1,2,40,APOSTROPHE,"mask3.avi (170x170)",1827,True
11,1,1,125,17,2,2,1,3,40,APOSTROPHE,"mask8.avi (170x170)",6574,True
11,1,1,126,149,2,2,1,3,40,APOSTROPHE,"mask4.avi (170x170)",1919,True
11,1,1,127,74,2,2,2,1,40,APOSTROPHE,"mask0.avi (170x170)",1540,True
11,1,1,128,90,2,2,2,1,40,APOSTROPHE,"mask4.avi (170x170)",2091,True
11,1,1,129,31,2,2,2,2,40,APOSTROPHE,"mask6.avi (170x170)",1457,True
11,1,1,130,55,2,2,2,2,40,APOSTROPHE,"mask8.avi (170x170)",1773,True
11,1,1,131,124,2,2,2,3,40,APOSTROPHE,"mask6.avi (170x170)",2322,True
11,1,1,132,57,2,2,2,3,40,APOSTROPHE,"mask6.avi (170x170)",2997,True
11,1,1,133,200,2,2,3,1,40,APOSTROPHE,"mask8.avi (170x170)",2626,True
11,1,1,134,70,2,2,3,1,40,APOSTROPHE,"mask8.avi (170x170)",1864,True
11,1,1,135,141,2,2,3,2,40,APOSTROPHE,"mask7.avi (170x170)",2666,True
11,1,1,136,106,2,2,3,2,40,APOSTROPHE,"mask6.avi (170x170)",1312,True
11,1,1,137,103,2,2,3,3,40,APOSTROPHE,"mask0.avi (170x170)",1956,True
11,1,1,138,78,2,2,3,3,40,APOSTROPHE,"mask3.avi (170x170)",1553,True
11,1,1,139,22,2,2,4,1,40,APOSTROPHE,"mask9.avi (170x170)",1056,True
11,1,1,140,142,2,2,4,1,40,APOSTROPHE,"mask9.avi (170x170)",2676,True
11,1,1,141,153,2,2,4,2,40,APOSTROPHE,"mask0.avi (170x170)",1177,True
11,1,1,142,66,2,2,4,2,40,APOSTROPHE,"mask1.avi (170x170)",1526,True
11,1,1,143,20,2,2,4,3,40,APOSTROPHE,"mask0.avi (170x170)",4546,True
11,1,1,144,41,2,2,4,3,40,APOSTROPHE,"mask9.avi (170x170)",2664,True
11,1,1,145,176,3,2,1,1,53,/,"mask8.avi (170x170)",1362,True
11,1,1,146,128,3,2,1,1,53,/,"mask1.avi (170x170)",3176,True
11,1,1,147,140,3,2,1,2,53,/,"mask9.avi (170x170)",3605,True
11,1,1,148,97,3,2,1,2,53,/,"mask2.avi (170x170)",5202,True
11,1,1,149,46,3,2,1,3,53,/,"mask1.avi (170x170)",5087,True
11,1,1,150,23,3,2,1,3,53,/,"mask9.avi (170x170)",3853,True
11,1,1,151,35,3,2,2,1,53,/,"mask4.avi (170x170)",2260,True
11,1,1,152,165,3,2,2,1,53,/,"mask3.avi (170x170)",1369,True
11,1,1,153,112,3,2,2,2,53,/,"mask1.avi (170x170)",1500,True
11,1,1,154,99,3,2,2,2,53,/,"mask3.avi (170x170)",1355,True
11,1,1,155,182,3,2,2,3,53,/,"mask8.avi (170x170)",1800,True
11,1,1,156,96,3,2,2,3,53,/,"mask1.avi (170x170)",2033,True
11,1,1,157,52,3,2,3,1,53,/,"mask9.avi (170x170)",3096,True
11,1,1,158,198,3,2,3,1,53,/,"mask3.avi (170x170)",1534,True
11,1,1,159,151,3,2,3,2,53,/,"mask3.avi (170x170)",2059,True
11,1,1,160,91,3,2,3,2,53,/,"mask5.avi (170x170)",1858,True
11,1,1,161,183,3,2,3,3,53,/,"mask8.avi (170x170)",2554,True
11,1,1,162,191,3,2,3,3,53,/,"mask7.avi (170x170)",1418,True
11,1,1,163,166,3,2,4,1,53,/,"mask6.avi (170x170)",1648,True
11,1,1,164,75,3,2,4,1,53,/,"mask9.avi (170x170)",2386,True
11,1,1,165,125,3,2,4,2,53,/,"mask3.avi (170x170)",1939,True
11,1,1,166,51,3,2,4,2,53,/,"mask1.avi (170x170)",2240,True
11,1,1,167,15,3,2,4,3,53,/,"mask3.avi (170x170)",2770,True
11,1,1,168,158,3,2,4,3,53,/,"mask1.avi (170x170)",4521,True
11,1,1,169,177,4,2,1,1,44,Z,"mask2.avi (170x170)",1281,True
11,1,1,170,148,4,2,1,1,44,Z,"mask0.avi (170x170)",3188,True
11,1,1,171,44,4,2,1,2,53,/,"mask7.avi (170x170)",3497,False
11,1,1,172,136,4,2,1,2,44,Z,"mask4.avi (170x170)",3885,True
11,1,1,173,93,4,2,1,3,44,Z,"mask2.avi (170x170)",2101,True
11,1,1,174,164,4,2,1,3,44,Z,"mask1.avi (170x170)",2190,True
11,1,1,175,69,4,2,2,1,44,Z,"mask0.avi (170x170)",1228,True
11,1,1,176,24,4,2,2,1,44,Z,"mask5.avi (170x170)",4505,True
11,1,1,177,184,4,2,2,2,44,Z,"mask2.avi (170x170)",1786,True
11,1,1,178,116,4,2,2,2,44,Z,"mask7.avi (170x170)",2275,True
11,1,1,179,167,4,2,2,3,44,Z,"mask8.avi (170x170)",1854,True
11,1,1,180,26,4,2,2,3,44,Z,"mask9.avi (170x170)",4644,True
11,1,1,181,152,4,2,3,1,44,Z,"mask5.avi (170x170)",1752,True
11,1,1,182,63,4,2,3,1,44,Z,"mask8.avi (170x170)",1754,True
11,1,1,183,171,4,2,3,2,44,Z,"mask1.avi (170x170)",2235,True
11,1,1,184,27,4,2,3,2,44,Z,"mask5.avi (170x170)",3809,True
11,1,1,185,121,4,2,3,3,44,Z,"mask7.avi (170x170)",5122,True
11,1,1,186,137,4,2,3,3,44,Z,"mask1.avi (170x170)",3529,True
11,1,1,187,154,4,2,4,1,44,Z,"mask9.avi (170x170)",2239,True
11,1,1,188,162,4,2,4,1,44,Z,"mask5.avi (170x170)",1792,True
11,1,1,189,143,4,2,4,2,44,Z,"mask5.avi (170x170)",2276,True
11,1,1,190,83,4,2,4,2,44,Z,"mask1.avi (170x170)",2752,True
11,1,1,191,37,4,2,4,3,53,/,"mask5.avi (170x170)",3457,False
11,1,1,192,178,4,2,4,3,44,Z,"mask0.avi (170x170)",1314,True
12,1,1,1,144,1,1,1,1,30,A,"mask8.avi (170x170)",2696,True
12,1,1,2,180,1,1,1,1,40,APOSTROPHE,"mask1.avi (170x170)",2980,False
12,1,1,3,43,1,1,1,2,30,A,"mask1.avi (170x170)",3324,True
12,1,1,4,60,1,1,1,2,40,APOSTROPHE,"mask8.avi (170x170)",1490,False
12,1,1,5,103,1,1,1,3,30,A,"mask2.avi (170x170)",2373,True
12,1,1,6,149,1,1,1,3,40,APOSTROPHE,"mask4.avi (170x170)",2905,False
12,1,1,7,142,1,1,2,1,40,APOSTROPHE,"mask4.avi (170x170)",1967,False
12,1,1,8,62,1,1,2,1,30,A,"mask9.avi (170x170)",3323,True
12,1,1,9,167,1,1,2,2,40,APOSTROPHE,"mask4.avi (170x170)",3756,False
12,1,1,10,156,1,1,2,2,30,A,"mask2.avi (170x170)",1830,True
12,1,1,11,204,1,1,2,3,40,APOSTROPHE,"mask3.avi (170x170)",1266,False
12,1,1,12,69,1,1,2,3,30,A,"mask0.avi (170x170)",2791,True
12,1,1,13,130,1,1,3,1,30,A,"mask4.avi (170x170)",2180,True
12,1,1,14,154,1,1,3,1,30,A,"mask6.avi (170x170)",2652,True
12,1,1,15,133,1,1,3,2,40,APOSTROPHE,"mask4.avi (170x170)",3291,False
12,1,1,16,104,1,1,3,2,30,A,"mask4.avi (170x170)",2203,True
12,1,1,17,128,1,1,3,3,53,/,"mask7.avi (170x170)",2773,False
12,1,1,18,53,1,1,3,3,40,APOSTROPHE,"mask7.avi (170x170)",3345,False
12,1,1,19,186,1,1,4,1,44,Z,"mask2.avi (170x170)",2193,False
12,1,1,20,45,1,1,4,1,40,APOSTROPHE,"mask2.avi (170x170)",4083,False
12,1,1,21,146,1,1,4,2,30,A,"mask2.avi (170x170)",1764,True
12,1,1,22,80,1,1,4,2,40,APOSTROPHE,"mask7.avi (170x170)",2255,False
12,1,1,23,190,1,1,4,3,30,A,"mask7.avi (170x170)",2020,True
12,1,1,24,32,1,1,4,3,30,A,"mask1.avi (170x170)",3155,True
12,1,1,25,81,2,1,1,1,40,APOSTROPHE,"mask5.avi (170x170)",1694,True
12,1,1,26,159,2,1,1,1,40,APOSTROPHE,"mask2.avi (170x170)",1555,True
12,1,1,27,18,2,1,1,2,40,APOSTROPHE,"mask2.avi (170x170)",2090,True
12,1,1,28,22,2,1,1,2,40,APOSTROPHE,"mask8.avi (170x170)",2476,True
12,1,1,29,197,2,1,1,3,40,APOSTROPHE,"mask4.avi (170x170)",1132,True
12,1,1,30,50,2,1,1,3,40,APOSTROPHE,"mask2.avi (170x170)",1853,True
12,1,1,31,105,2,1,2,1,40,APOSTROPHE,"mask0.avi (170x170)",1915,True
12,1,1,32,88,2,1,2,1,30,A,"mask2.avi (170x170)",2508,False
12,1,1,33,94,2,1,2,2,40,APOSTROPHE,"mask3.avi (170x170)",2971,True
12,1,1,34,179,2,1,2,2,40,APOSTROPHE,"mask2.avi (170x170)",1344,True
12,1,1,35,51,2,1,2,3,30,A,"mask1.avi (170x170)",3221,False
12,1,1,36,171,2,1,2,3,40,APOSTROPHE,"mask6.avi (170x170)",1776,True
12,1,1,37,189,2,1,3,1,40,APOSTROPHE,"mask3.avi (170x170)",1163,True
12,1,1,38,24,2,1,3,1,40,APOSTROPHE,"mask4.avi (170x170)",2437,True
12,1,1,39,111,2,1,3,2,40,APOSTROPHE,"mask3.avi (170x170)",2019,True
12,1,1,40,113,2,1,3,2,40,APOSTROPHE,"mask8.avi (170x170)",1614,True
12,1,1,41,23,2,1,3,3,40,APOSTROPHE,"mask3.avi (170x170)",1965,True
12,1,1,42,39,2,1,3,3,40,APOSTROPHE,"mask4.avi (170x170)",6830,True
12,1,1,43,61,2,1,4,1,40,APOSTROPHE,"mask3.avi (170x170)",2443,True
12,1,1,44,63,2,1,4,1,40,APOSTROPHE,"mask4.avi (170x170)",1876,True
12,1,1,45,56,2,1,4,2,40,APOSTROPHE,"mask1.avi (170x170)",1987,True
12,1,1,46,14,2,1,4,2,40,APOSTROPHE,"mask2.avi (170x170)",2403,True
12,1,1,47,153,2,1,4,3,40,APOSTROPHE,"mask2.avi (170x170)",1193,True
12,1,1,48,188,2,1,4,3,40,APOSTROPHE,"mask0.avi (170x170)",1223,True
12,1,1,49,13,3,1,1,1,40,APOSTROPHE,"mask5.avi (170x170)",1619,False
12,1,1,50,162,3,1,1,1,44,Z,"mask3.avi (170x170)",2214,False
12,1,1,51,40,3,1,1,2,53,/,"mask6.avi (170x170)",3328,True
12,1,1,52,141,3,1,1,2,53,/,"mask1.avi (170x170)",1586,True
12,1,1,53,155,3,1,1,3,53,/,"mask9.avi (170x170)",1034,True
12,1,1,54,169,3,1,1,3,53,/,"mask0.avi (170x170)",4261,True
12,1,1,55,26,3,1,2,1,44,Z,"mask5.avi (170x170)",2309,False
12,1,1,56,183,3,1,2,1,53,/,"mask3.avi (170x170)",1452,True
12,1,1,57,136,3,1,2,2,53,/,"mask0.avi (170x170)",1334,True
12,1,1,58,97,3,1,2,2,53,/,"mask6.avi (170x170)",2195,True
12,1,1,59,35,3,1,2,3,53,/,"mask7.avi (170x170)",4586,True
12,1,1,60,135,3,1,2,3,53,/,"mask9.avi (170x170)",1786,True
12,1,1,61,76,3,1,3,1,40,APOSTROPHE,"mask6.avi (170x170)",3144,False
12,1,1,62,191,3,1,3,1,53,/,"mask6.avi (170x170)",1267,True
12,1,1,63,203,3,1,3,2,53,/,"mask6.avi (170x170)",1329,True
12,1,1,64,166,3,1,3,2,53,/,"mask6.avi (170x170)",1704,True
12,1,1,65,174,3,1,3,3,53,/,"mask5.avi (170x170)",1507,True
12,1,1,66,194,3,1,3,3,53,/,"mask7.avi (170x170)",1779,True
12,1,1,67,34,3,1,4,1,53,/,"mask0.avi (170x170)",4822,True
12,1,1,68,92,3,1,4,1,53,/,"mask5.avi (170x170)",2802,True
12,1,1,69,173,3,1,4,2,53,/,"mask9.avi (170x170)",1184,True
12,1,1,70,48,3,1,4,2,53,/,"mask7.avi (170x170)",6695,True
12,1,1,71,129,3,1,4,3,53,/,"mask6.avi (170x170)",1413,True
12,1,1,72,161,3,1,4,3,53,/,"mask6.avi (170x170)",1204,True
12,1,1,73,195,4,1,1,1,30,A,"mask4.avi (170x170)",3393,False
12,1,1,74,108,4,1,1,1,40,APOSTROPHE,"mask0.avi (170x170)",3424,False
12,1,1,75,19,4,1,1,2,30,A,"mask9.avi (170x170)",3779,False
12,1,1,76,126,4,1,1,2,30,A,"mask2.avi (170x170)",2385,False
12,1,1,77,182,4,1,1,3,53,/,"mask7.avi (170x170)",2242,False
12,1,1,78,31,4,1,1,3,44,Z,"mask3.avi (170x170)",6413,True
12,1,1,79,114,4,1,2,1,53,/,"mask5.avi (170x170)",3269,False
12,1,1,80,145,4,1,2,1,44,Z,"mask4.avi (170x170)",2334,True
12,1,1,81,37,4,1,2,2,44,Z,"mask9.avi (170x170)",3974,True
12,1,1,82,99,4,1,2,2,40,APOSTROPHE,"mask3.avi (170x170)",2287,False
12,1,1,83,193,4,1,2,3,44,Z,"mask8.avi (170x170)",3503,True
12,1,1,84,137,4,1,2,3,44,Z,"mask9.avi (170x170)",2014,True
12,1,1,85,15,4,1,3,1,44,Z,"mask1.avi (170x170)",2003,True
12,1,1,86,65,4,1,3,1,44,Z,"mask7.avi (170x170)",2007,True
12,1,1,87,175,4,1,3,2,44,Z,"mask7.avi (170x170)",2850,True
12,1,1,88,201,4,1,3,2,44,Z,"mask1.avi (170x170)",3355,True
12,1,1,89,17,4,1,3,3,53,/,"mask5.avi (170x170)",2079,False
12,1,1,90,125,4,1,3,3,30,A,"mask4.avi (170x170)",3268,False
12,1,1,91,172,4,1,4,1,53,/,"mask9.avi (170x170)",2928,False
12,1,1,92,150,4,1,4,1,53,/,"mask5.avi (170x170)",2461,False
12,1,1,93,139,4,1,4,2,53,/,"mask2.avi (170x170)",3023,False
12,1,1,94,29,4,1,4,2,44,Z,"mask7.avi (170x170)",2459,True
12,1,1,95,118,4,1,4,3,30,A,"mask8.avi (170x170)",3668,False
12,1,1,96,115,4,1,4,3,44,Z,"mask4.avi (170x170)",2057,True
12,1,1,97,87,1,2,1,1,40,APOSTROPHE,"mask8.avi (170x170)",1613,False
12,1,1,98,28,1,2,1,1,40,APOSTROPHE,"mask0.avi (170x170)",1540,False
12,1,1,99,91,1,2,1,2,44,Z,"mask8.avi (170x170)",3119,False
12,1,1,100,122,1,2,1,2,30,A,"mask2.avi (170x170)",1244,True
12,1,1,101,157,1,2,1,3,30,A,"mask5.avi (170x170)",1003,True
12,1,1,102,52,1,2,1,3,40,APOSTROPHE,"mask6.avi (170x170)",3410,False
12,1,1,103,124,1,2,2,1,30,A,"mask4.avi (170x170)",1205,True
12,1,1,104,140,1,2,2,1,30,A,"mask7.avi (170x170)",1259,True
12,1,1,105,36,1,2,2,2,30,A,"mask0.avi (170x170)",2526,True
12,1,1,106,57,1,2,2,2,30,A,"mask5.avi (170x170)",1449,True
12,1,1,107,86,1,2,2,3,40,APOSTROPHE,"mask5.avi (170x170)",1744,False
12,1,1,108,134,1,2,2,3,30,A,"mask6.avi (170x170)",1339,True
12,1,1,109,102,1,2,3,1,40,APOSTROPHE,"mask9.avi (170x170)",1403,False
12,1,1,110,67,1,2,3,1,30,A,"mask0.avi (170x170)",1940,True
12,1,1,111,152,1,2,3,2,30,A,"mask8.avi (170x170)",1058,True
12,1,1,112,147,1,2,3,2,30,A,"mask7.avi (170x170)",1269,True
12,1,1,113,200,1,2,3,3,30,A,"mask1.avi (170x170)",1850,True
12,1,1,114,117,1,2,3,3,30,A,"mask3.avi (170x170)",1484,True
12,1,1,115,70,1,2,4,1,30,A,"mask5.avi (170x170)",1555,True
12,1,1,116,54,1,2,4,1,40,APOSTROPHE,"mask7.avi (170x170)",2317,False
12,1,1,117,46,1,2,4,2,30,A,"mask8.avi (170x170)",1410,True
12,1,1,118,20,1,2,4,2,30,A,"mask0.avi (170x170)",2024,True
12,1,1,119,164,1,2,4,3,30,A,"mask6.avi (170x170)",1178,True
12,1,1,120,84,1,2,4,3,30,A,"mask2.avi (170x170)",1502,True
12,1,1,121,199,2,2,1,1,30,A,"mask6.avi (170x170)",1440,False
12,1,1,122,30,2,2,1,1,40,APOSTROPHE,"mask0.avi (170x170)",2745,True
12,1,1,123,82,2,2,1,2,40,APOSTROPHE,"mask9.avi (170x170)",1924,True
12,1,1,124,25,2,2,1,2,40,APOSTROPHE,"mask3.avi (170x170)",2064,True
12,1,1,125,177,2,2,1,3,40,APOSTROPHE,"mask8.avi (170x170)",2359,True
12,1,1,126,78,2,2,1,3,30,A,"mask4.avi (170x170)",2011,False
12,1,1,127,184,2,2,2,1,53,/,"mask0.avi (170x170)",651,False
12,1,1,128,21,2,2,2,1,40,APOSTROPHE,"mask4.avi (170x170)",2453,True
12,1,1,129,120,2,2,2,2,40,APOSTROPHE,"mask6.avi (170x170)",1405,True
12,1,1,130,90,2,2,2,2,40,APOSTROPHE,"mask8.avi (170x170)",1257,True
12,1,1,131,98,2,2,2,3,40,APOSTROPHE,"mask6.avi (170x170)",1397,True
12,1,1,132,93,2,2,2,3,40,APOSTROPHE,"mask6.avi (170x170)",1291,True
12,1,1,133,143,2,2,3,1,40,APOSTROPHE,"mask8.avi (170x170)",1527,True
12,1,1,134,42,2,2,3,1,40,APOSTROPHE,"mask8.avi (170x170)",1683,True
12,1,1,135,101,2,2,3,2,40,APOSTROPHE,"mask7.avi (170x170)",1203,True
12,1,1,136,74,2,2,3,2,40,APOSTROPHE,"mask6.avi (170x170)",1331,True
12,1,1,137,79,2,2,3,3,40,APOSTROPHE,"mask0.avi (170x170)",2307,True
12,1,1,138,132,2,2,3,3,40,APOSTROPHE,"mask3.avi (170x170)",2060,True
12,1,1,139,176,2,2,4,1,44,Z,"mask9.avi (170x170)",1865,False
12,1,1,140,109,2,2,4,1,40,APOSTROPHE,"mask9.avi (170x170)",1195,True
12,1,1,141,119,2,2,4,2,30,A,"mask0.avi (170x170)",1191,False
12,1,1,142,66,2,2,4,2,40,APOSTROPHE,"mask1.avi (170x170)",1863,True
12,1,1,143,100,2,2,4,3,40,APOSTROPHE,"mask0.avi (170x170)",1640,True
12,1,1,144,165,2,2,4,3,40,APOSTROPHE,"mask9.avi (170x170)",2658,True
12,1,1,145,158,3,2,1,1,53,/,"mask8.avi (170x170)",1691,True
12,1,1,146,58,3,2,1,1,40,APOSTROPHE,"mask1.avi (170x170)",2273,False
12,1,1,147,89,3,2,1,2,53,/,"mask9.avi (170x170)",1568,True
12,1,1,148,107,3,2,1,2,53,/,"mask2.avi (170x170)",1297,True
12,1,1,149,77,3,2,1,3,53,/,"mask1.avi (170x170)",2053,True
12,1,1,150,148,3,2,1,3,53,/,"mask9.avi (170x170)",1538,True
12,1,1,151,160,3,2,2,1,53,/,"mask4.avi (170x170)",1453,True
12,1,1,152,151,3,2,2,1,44,Z,"mask3.avi (170x170)",1659,False
12,1,1,153,44,3,2,2,2,53,/,"mask1.avi (170x170)",2923,True
12,1,1,154,68,3,2,2,2,53,/,"mask3.avi (170x170)",1706,True
12,1,1,155,185,3,2,2,3,44,Z,"mask8.avi (170x170)",1548,False
12,1,1,156,16,3,2,2,3,53,/,"mask1.avi (170x170)",3147,True
12,1,1,157,121,3,2,3,1,53,/,"mask9.avi (170x170)",1262,True
12,1,1,158,27,3,2,3,1,53,/,"mask3.avi (170x170)",4314,True
12,1,1,159,33,3,2,3,2,53,/,"mask3.avi (170x170)",1524,True
12,1,1,160,47,3,2,3,2,53,/,"mask5.avi (170x170)",1516,True
12,1,1,161,49,3,2,3,3,53,/,"mask8.avi (170x170)",3796,True
12,1,1,162,202,3,2,3,3,44,Z,"mask7.avi (170x170)",1518,False
12,1,1,163,71,3,2,4,1,30,A,"mask6.avi (170x170)",1310,False
12,1,1,164,163,3,2,4,1,53,/,"mask9.avi (170x170)",1820,True
12,1,1,165,83,3,2,4,2,53,/,"mask3.avi (170x170)",1565,True
12,1,1,166,41,3,2,4,2,53,/,"mask1.avi (170x170)",3904,True
12,1,1,167,123,3,2,4,3,53,/,"mask3.avi (170x170)",1021,True
12,1,1,168,106,3,2,4,3,53,/,"mask1.avi (170x170)",1318,True
12,1,1,169,196,4,2,1,1,44,Z,"mask2.avi (170x170)",1570,True
12,1,1,170,112,4,2,1,1,53,/,"mask0.avi (170x170)",1586,False
12,1,1,171,55,4,2,1,2,44,Z,"mask7.avi (170x170)",2023,True
12,1,1,172,59,4,2,1,2,44,Z,"mask4.avi (170x170)",2332,True
12,1,1,173,170,4,2,1,3,44,Z,"mask2.avi (170x170)",1096,True
12,1,1,174,38,4,2,1,3,53,/,"mask1.avi (170x170)",3947,False
12,1,1,175,116,4,2,2,1,44,Z,"mask0.avi (170x170)",1441,True
12,1,1,176,181,4,2,2,1,44,Z,"mask5.avi (170x170)",1218,True
12,1,1,177,75,4,2,2,2,44,Z,"mask2.avi (170x170)",1548,True
12,1,1,178,198,4,2,2,2,44,Z,"mask7.avi (170x170)",1228,True
12,1,1,179,64,4,2,2,3,44,Z,"mask8.avi (170x170)",1846,True
12,1,1,180,95,4,2,2,3,44,Z,"mask9.avi (170x170)",1450,True
12,1,1,181,192,4,2,3,1,44,Z,"mask5.avi (170x170)",1296,True
12,1,1,182,72,4,2,3,1,30,A,"mask8.avi (170x170)",1683,False
12,1,1,183,73,4,2,3,2,44,Z,"mask1.avi (170x170)",1612,True
12,1,1,184,178,4,2,3,2,44,Z,"mask5.avi (170x170)",1456,True
12,1,1,185,168,4,2,3,3,44,Z,"mask7.avi (170x170)",1893,True
12,1,1,186,85,4,2,3,3,53,/,"mask1.avi (170x170)",1907,False
12,1,1,187,127,4,2,4,1,44,Z,"mask9.avi (170x170)",1734,True
12,1,1,188,96,4,2,4,1,44,Z,"mask5.avi (170x170)",1419,True
12,1,1,189,131,4,2,4,2,44,Z,"mask5.avi (170x170)",1433,True
12,1,1,190,110,4,2,4,2,44,Z,"mask1.avi (170x170)",2182,True
12,1,1,191,187,4,2,4,3,44,Z,"mask5.avi (170x170)",1235,True
12,1,1,192,138,4,2,4,3,44,Z,"mask0.avi (170x170)",1276,True
13,1,1,1,80,1,1,1,1,30,A,"mask8.avi (170x170)",6216,True
13,1,1,2,56,1,1,1,1,40,APOSTROPHE,"mask1.avi (170x170)",4349,False
13,1,1,3,95,1,1,1,2,30,A,"mask1.avi (170x170)",6513,True
13,1,1,4,63,1,1,1,2,30,A,"mask8.avi (170x170)",1642,True
13,1,1,5,167,1,1,1,3,30,A,"mask2.avi (170x170)",4736,True
13,1,1,6,87,1,1,1,3,30,A,"mask4.avi (170x170)",1866,True
13,1,1,7,132,1,1,2,1,30,A,"mask4.avi (170x170)",2715,True
13,1,1,8,73,1,1,2,1,40,APOSTROPHE,"mask9.avi (170x170)",5520,False
13,1,1,9,139,1,1,2,2,30,A,"mask4.avi (170x170)",1530,True
13,1,1,10,174,1,1,2,2,30,A,"mask2.avi (170x170)",1868,True
13,1,1,11,113,1,1,2,3,40,APOSTROPHE,"mask3.avi (170x170)",2567,False
13,1,1,12,140,1,1,2,3,40,APOSTROPHE,"mask0.avi (170x170)",3532,False
13,1,1,13,81,1,1,3,1,30,A,"mask4.avi (170x170)",3230,True
13,1,1,14,57,1,1,3,1,30,A,"mask6.avi (170x170)",5835,True
13,1,1,15,185,1,1,3,2,30,A,"mask4.avi (170x170)",4702,True
13,1,1,16,149,1,1,3,2,30,A,"mask4.avi (170x170)",2322,True
13,1,1,17,64,1,1,3,3,30,A,"mask7.avi (170x170)",4959,True
13,1,1,18,65,1,1,3,3,30,A,"mask7.avi (170x170)",2491,True
13,1,1,19,202,1,1,4,1,40,APOSTROPHE,"mask2.avi (170x170)",2589,False
13,1,1,20,146,1,1,4,1,30,A,"mask2.avi (170x170)",4058,True
13,1,1,21,173,1,1,4,2,30,A,"mask2.avi (170x170)",1869,True
13,1,1,22,177,1,1,4,2,30,A,"mask7.avi (170x170)",1436,True
13,1,1,23,27,1,1,4,3,30,A,"mask7.avi (170x170)",4367,True
13,1,1,24,165,1,1,4,3,30,A,"mask1.avi (170x170)",4337,True
13,1,1,25,44,2,1,1,1,40,APOSTROPHE,"mask5.avi (170x170)",3215,True
13,1,1,26,82,2,1,1,1,40,APOSTROPHE,"mask2.avi (170x170)",4066,True
13,1,1,27,135,2,1,1,2,40,APOSTROPHE,"mask2.avi (170x170)",1678,True
13,1,1,28,115,2,1,1,2,40,APOSTROPHE,"mask8.avi (170x170)",1825,True
13,1,1,29,138,2,1,1,3,40,APOSTROPHE,"mask4.avi (170x170)",2257,True
13,1,1,30,203,2,1,1,3,40,APOSTROPHE,"mask2.avi (170x170)",1502,True
13,1,1,31,143,2,1,2,1,40,APOSTROPHE,"mask0.avi (170x170)",1911,True
13,1,1,32,122,2,1,2,1,40,APOSTROPHE,"mask2.avi (170x170)",2172,True
13,1,1,33,49,2,1,2,2,40,APOSTROPHE,"mask3.avi (170x170)",3866,True
13,1,1,34,164,2,1,2,2,40,APOSTROPHE,"mask2.avi (170x170)",1176,True
13,1,1,35,39,2,1,2,3,40,APOSTROPHE,"mask1.avi (170x170)",4717,True
13,1,1,36,159,2,1,2,3,40,APOSTROPHE,"mask6.avi (170x170)",1722,True
13,1,1,37,38,2,1,3,1,40,APOSTROPHE,"mask3.avi (170x170)",3615,True
13,1,1,38,48,2,1,3,1,40,APOSTROPHE,"mask4.avi (170x170)",1757,True
13,1,1,39,59,2,1,3,2,40,APOSTROPHE,"mask3.avi (170x170)",2017,True
13,1,1,40,128,2,1,3,2,40,APOSTROPHE,"mask8.avi (170x170)",2285,True
13,1,1,41,151,2,1,3,3,40,APOSTROPHE,"mask3.avi (170x170)",2573,True
13,1,1,42,131,2,1,3,3,40,APOSTROPHE,"mask4.avi (170x170)",3513,True
13,1,1,43,67,2,1,4,1,40,APOSTROPHE,"mask3.avi (170x170)",2635,True
13,1,1,44,188,2,1,4,1,40,APOSTROPHE,"mask4.avi (170x170)",1212,True
13,1,1,45,84,2,1,4,2,40,APOSTROPHE,"mask1.avi (170x170)",1921,True
13,1,1,46,19,2,1,4,2,40,APOSTROPHE,"mask2.avi (170x170)",3450,True
13,1,1,47,137,2,1,4,3,40,APOSTROPHE,"mask2.avi (170x170)",2481,True
13,1,1,48,60,2,1,4,3,40,APOSTROPHE,"mask0.avi (170x170)",1722,True
13,1,1,49,61,3,1,1,1,53,/,"mask5.avi (170x170)",2705,True
13,1,1,50,176,3,1,1,1,53,/,"mask3.avi (170x170)",1401,True
13,1,1,51,199,3,1,1,2,53,/,"mask6.avi (170x170)",2431,True
13,1,1,52,142,3,1,1,2,53,/,"mask1.avi (170x170)",1247,True
13,1,1,53,126,3,1,1,3,53,/,"mask9.avi (170x170)",6381,True
13,1,1,54,171,3,1,1,3,53,/,"mask0.avi (170x170)",1773,True
13,1,1,55,120,3,1,2,1,53,/,"mask5.avi (170x170)",3214,True
13,1,1,56,71,3,1,2,1,53,/,"mask3.avi (170x170)",1617,True
13,1,1,57,156,3,1,2,2,53,/,"mask0.avi (170x170)",2081,True
13,1,1,58,41,3,1,2,2,53,/,"mask6.avi (170x170)",1801,True
13,1,1,59,187,3,1,2,3,53,/,"mask7.avi (170x170)",2398,True
13,1,1,60,52,3,1,2,3,53,/,"mask9.avi (170x170)",2270,True
13,1,1,61,111,3,1,3,1,53,/,"mask6.avi (170x170)",2157,True
13,1,1,62,47,3,1,3,1,53,/,"mask6.avi (170x170)",1193,True
13,1,1,63,198,3,1,3,2,53,/,"mask6.avi (170x170)",1503,True
13,1,1,64,74,3,1,3,2,53,/,"mask6.avi (170x170)",1615,True
13,1,1,65,86,3,1,3,3,53,/,"mask5.avi (170x170)",2864,True
13,1,1,66,200,3,1,3,3,53,/,"mask7.avi (170x170)",2976,True
13,1,1,67,147,3,1,4,1,53,/,"mask0.avi (170x170)",2002,True
13,1,1,68,53,3,1,4,1,53,/,"mask5.avi (170x170)",2078,True
13,1,1,69,55,3,1,4,2,53,/,"mask9.avi (170x170)",1661,True
13,1,1,70,114,3,1,4,2,53,/,"mask7.avi (170x170)",3308,True
13,1,1,71,34,3,1,4,3,53,/,"mask6.avi (170x170)",4201,True
13,1,1,72,117,3,1,4,3,53,/,"mask6.avi (170x170)",3753,True
13,1,1,73,133,4,1,1,1,53,/,"mask4.avi (170x170)",4524,False
13,1,1,74,68,4,1,1,1,44,Z,"mask0.avi (170x170)",5531,True
13,1,1,75,194,4,1,1,2,44,Z,"mask9.avi (170x170)",1610,True
13,1,1,76,123,4,1,1,2,44,Z,"mask2.avi (170x170)",5808,True
13,1,1,77,186,4,1,1,3,44,Z,"mask7.avi (170x170)",2559,True
13,1,1,78,169,4,1,1,3,44,Z,"mask3.avi (170x170)",5675,True
13,1,1,79,189,4,1,2,1,44,Z,"mask5.avi (170x170)",2621,True
13,1,1,80,37,4,1,2,1,44,Z,"mask4.avi (170x170)",3536,True
13,1,1,81,158,4,1,2,2,44,Z,"mask9.avi (170x170)",1577,True
13,1,1,82,18,4,1,2,2,44,Z,"mask3.avi (170x170)",2316,True
13,1,1,83,51,4,1,2,3,44,Z,"mask8.avi (170x170)",3784,True
13,1,1,84,42,4,1,2,3,44,Z,"mask9.avi (170x170)",1582,True
13,1,1,85,102,4,1,3,1,44,Z,"mask1.avi (170x170)",6496,True
13,1,1,86,144,4,1,3,1,44,Z,"mask7.avi (170x170)",4864,True
13,1,1,87,193,4,1,3,2,44,Z,"mask7.avi (170x170)",4140,True
13,1,1,88,70,4,1,3,2,40,APOSTROPHE,"mask1.avi (170x170)",3089,False
13,1,1,89,183,4,1,3,3,44,Z,"mask5.avi (170x170)",5324,True
13,1,1,90,170,4,1,3,3,44,Z,"mask4.avi (170x170)",2825,True
13,1,1,91,75,4,1,4,1,44,Z,"mask9.avi (170x170)",6663,True
13,1,1,92,66,4,1,4,1,40,APOSTROPHE,"mask5.avi (170x170)",3263,False
13,1,1,93,62,4,1,4,2,44,Z,"mask2.avi (170x170)",1658,True
13,1,1,94,88,4,1,4,2,44,Z,"mask7.avi (170x170)",6362,True
13,1,1,95,91,4,1,4,3,44,Z,"mask8.avi (170x170)",1801,True
13,1,1,96,181,4,1,4,3,44,Z,"mask4.avi (170x170)",2135,True
13,1,1,97,69,1,2,1,1,30,A,"mask8.avi (170x170)",1824,True
13,1,1,98,101,1,2,1,1,30,A,"mask0.avi (170x170)",3777,True
13,1,1,99,191,1,2,1,2,30,A,"mask8.avi (170x170)",1377,True
13,1,1,100,58,1,2,1,2,30,A,"mask2.avi (170x170)",1755,True
13,1,1,101,148,1,2,1,3,30,A,"mask5.avi (170x170)",2304,True
13,1,1,102,33,1,2,1,3,30,A,"mask6.avi (170x170)",1565,True
13,1,1,103,14,1,2,2,1,30,A,"mask4.avi (170x170)",2688,True
13,1,1,104,125,1,2,2,1,30,A,"mask7.avi (170x170)",1262,True
13,1,1,105,192,1,2,2,2,30,A,"mask0.avi (170x170)",2616,True
13,1,1,106,121,1,2,2,2,30,A,"mask5.avi (170x170)",1579,True
13,1,1,107,162,1,2,2,3,30,A,"mask5.avi (170x170)",2688,True
13,1,1,108,130,1,2,2,3,30,A,"mask6.avi (170x170)",1486,True
13,1,1,109,201,1,2,3,1,30,A,"mask9.avi (170x170)",1661,True
13,1,1,110,20,1,2,3,1,30,A,"mask0.avi (170x170)",6553,True
13,1,1,111,108,1,2,3,2,30,A,"mask8.avi (170x170)",1447,True
13,1,1,112,45,1,2,3,2,30,A,"mask7.avi (170x170)",2523,True
13,1,1,113,97,1,2,3,3,30,A,"mask1.avi (170x170)",2699,True
13,1,1,114,30,1,2,3,3,30,A,"mask3.avi (170x170)",3311,True
13,1,1,115,129,1,2,4,1,30,A,"mask5.avi (170x170)",3018,True
13,1,1,116,109,1,2,4,1,30,A,"mask7.avi (170x170)",1209,True
13,1,1,117,153,1,2,4,2,30,A,"mask8.avi (170x170)",1533,True
13,1,1,118,118,1,2,4,2,30,A,"mask0.avi (170x170)",2029,True
13,1,1,119,107,1,2,4,3,30,A,"mask6.avi (170x170)",3290,True
13,1,1,120,17,1,2,4,3,30,A,"mask2.avi (170x170)",5178,True
13,1,1,121,32,2,2,1,1,40,APOSTROPHE,"mask6.avi (170x170)",5869,True
13,1,1,122,79,2,2,1,1,30,A,"mask0.avi (170x170)",4875,False
13,1,1,123,112,2,2,1,2,40,APOSTROPHE,"mask9.avi (170x170)",1755,True
13,1,1,124,172,2,2,1,2,40,APOSTROPHE,"mask3.avi (170x170)",3374,True
13,1,1,125,29,2,2,1,3,40,APOSTROPHE,"mask8.avi (170x170)",5610,True
13,1,1,126,196,2,2,1,3,40,APOSTROPHE,"mask4.avi (170x170)",6449,True
13,1,1,127,13,2,2,2,1,40,APOSTROPHE,"mask0.avi (170x170)",3048,True
13,1,1,128,93,2,2,2,1,40,APOSTROPHE,"mask4.avi (170x170)",2391,True
13,1,1,129,154,2,2,2,2,30,A,"mask6.avi (170x170)",1903,False
13,1,1,130,127,2,2,2,2,40,APOSTROPHE,"mask8.avi (170x170)",1881,True
13,1,1,131,150,2,2,2,3,30,A,"mask6.avi (170x170)",4800,False
13,1,1,132,155,2,2,2,3,30,A,"mask6.avi (170x170)",3200,False
13,1,1,133,204,2,2,3,1,40,APOSTROPHE,"mask8.avi (170x170)",7503,True
13,1,1,134,157,2,2,3,1,40,APOSTROPHE,"mask8.avi (170x170)",3470,True
13,1,1,135,76,2,2,3,2,40,APOSTROPHE,"mask7.avi (170x170)",6076,True
13,1,1,136,22,2,2,3,2,30,A,"mask6.avi (170x170)",3192,False
13,1,1,137,116,2,2,3,3,40,APOSTROPHE,"mask0.avi (170x170)",2504,True
13,1,1,138,160,2,2,3,3,40,APOSTROPHE,"mask3.avi (170x170)",5742,True
13,1,1,139,28,2,2,4,1,40,APOSTROPHE,"mask9.avi (170x170)",4728,True
13,1,1,140,152,2,2,4,1,40,APOSTROPHE,"mask9.avi (170x170)",2328,True
13,1,1,141,179,2,2,4,2,40,APOSTROPHE,"mask0.avi (170x170)",2716,True
13,1,1,142,168,2,2,4,2,40,APOSTROPHE,"mask1.avi (170x170)",1529,True
13,1,1,143,175,2,2,4,3,30,A,"mask0.avi (170x170)",2924,False
13,1,1,144,50,2,2,4,3,40,APOSTROPHE,"mask9.avi (170x170)",1856,True
13,1,1,145,89,3,2,1,1,53,/,"mask8.avi (170x170)",1978,True
13,1,1,146,72,3,2,1,1,53,/,"mask1.avi (170x170)",6329,True
13,1,1,147,166,3,2,1,2,53,/,"mask9.avi (170x170)",2152,True
13,1,1,148,26,3,2,1,2,53,/,"mask2.avi (170x170)",3257,True
13,1,1,149,31,3,2,1,3,53,/,"mask1.avi (170x170)",5257,True
13,1,1,150,145,3,2,1,3,53,/,"mask9.avi (170x170)",5136,True
13,1,1,151,16,3,2,2,1,53,/,"mask4.avi (170x170)",3003,True
13,1,1,152,182,3,2,2,1,53,/,"mask3.avi (170x170)",4202,True
13,1,1,153,106,3,2,2,2,53,/,"mask1.avi (170x170)",5215,True
13,1,1,154,134,3,2,2,2,53,/,"mask3.avi (170x170)",6206,True
13,1,1,155,94,3,2,2,3,53,/,"mask8.avi (170x170)",4017,True
13,1,1,156,96,3,2,2,3,53,/,"mask1.avi (170x170)",2107,True
13,1,1,157,197,3,2,3,1,53,/,"mask9.avi (170x170)",4912,True
13,1,1,158,141,3,2,3,1,53,/,"mask3.avi (170x170)",3835,True
13,1,1,159,83,3,2,3,2,44,Z,"mask3.avi (170x170)",1535,False
13,1,1,160,24,3,2,3,2,53,/,"mask5.avi (170x170)",5272,True
13,1,1,161,136,3,2,3,3,53,/,"mask8.avi (170x170)",5563,True
13,1,1,162,92,3,2,3,3,53,/,"mask7.avi (170x170)",6510,True
13,1,1,163,184,3,2,4,1,53,/,"mask6.avi (170x170)",5530,True
13,1,1,164,105,3,2,4,1,53,/,"mask9.avi (170x170)",6010,True
13,1,1,165,190,3,2,4,2,40,APOSTROPHE,"mask3.avi (170x170)",2800,False
13,1,1,166,54,3,2,4,2,53,/,"mask1.avi (170x170)",6235,True
13,1,1,167,195,3,2,4,3,53,/,"mask3.avi (170x170)",3996,True
13,1,1,168,110,3,2,4,3,53,/,"mask1.avi (170x170)",2826,True
13,1,1,169,163,4,2,1,1,44,Z,"mask2.avi (170x170)",4606,True
13,1,1,170,36,4,2,1,1,44,Z,"mask0.avi (170x170)",4474,True
13,1,1,171,119,4,2,1,2,44,Z,"mask7.avi (170x170)",2139,True
13,1,1,172,178,4,2,1,2,44,Z,"mask4.avi (170x170)",2329,True
13,1,1,173,180,4,2,1,3,44,Z,"mask2.avi (170x170)",2333,True
13,1,1,174,104,4,2,1,3,44,Z,"mask1.avi (170x170)",3261,True
13,1,1,175,25,4,2,2,1,44,Z,"mask0.avi (170x170)",2016,True
13,1,1,176,78,4,2,2,1,44,Z,"mask5.avi (170x170)",2237,True
13,1,1,177,124,4,2,2,2,44,Z,"mask2.avi (170x170)",1581,True
13,1,1,178,77,4,2,2,2,44,Z,"mask7.avi (170x170)",4092,True
13,1,1,179,103,4,2,2,3,44,Z,"mask8.avi (170x170)",2030,True
13,1,1,180,21,4,2,2,3,44,Z,"mask9.avi (170x170)",4875,True
13,1,1,181,100,4,2,3,1,44,Z,"mask5.avi (170x170)",3050,True
13,1,1,182,161,4,2,3,1,44,Z,"mask8.avi (170x170)",1704,True
13,1,1,183,46,4,2,3,2,44,Z,"mask1.avi (170x170)",1337,True
13,1,1,184,98,4,2,3,2,44,Z,"mask5.avi (170x170)",2526,True
13,1,1,185,40,4,2,3,3,44,Z,"mask7.avi (170x170)",5225,True
13,1,1,186,85,4,2,3,3,44,Z,"mask1.avi (170x170)",2670,True
13,1,1,187,35,4,2,4,1,44,Z,"mask9.avi (170x170)",1419,True
13,1,1,188,90,4,2,4,1,44,Z,"mask5.avi (170x170)",1627,True
13,1,1,189,23,4,2,4,2,44,Z,"mask5.avi (170x170)",4825,True
13,1,1,190,99,4,2,4,2,44,Z,"mask1.avi (170x170)",2236,True
13,1,1,191,15,4,2,4,3,44,Z,"mask5.avi (170x170)",3532,True
13,1,1,192,43,4,2,4,3,44,Z,"mask0.avi (170x170)",2110,True
14,1,1,1,173,1,1,1,1,40,APOSTROPHE,"mask8.avi (170x170)",1578,False
14,1,1,2,130,1,1,1,1,30,A,"mask1.avi (170x170)",1846,True
14,1,1,3,32,1,1,1,2,30,A,"mask1.avi (170x170)",2060,True
14,1,1,4,33,1,1,1,2,30,A,"mask8.avi (170x170)",1314,True
14,1,1,5,23,1,1,1,3,30,A,"mask2.avi (170x170)",2540,True
14,1,1,6,109,1,1,1,3,30,A,"mask4.avi (170x170)",2745,True
14,1,1,7,49,1,1,2,1,30,A,"mask4.avi (170x170)",1370,True
14,1,1,8,118,1,1,2,1,30,A,"mask9.avi (170x170)",2012,True
14,1,1,9,79,1,1,2,2,30,A,"mask4.avi (170x170)",1144,True
14,1,1,10,103,1,1,2,2,30,A,"mask2.avi (170x170)",1572,True
14,1,1,11,197,1,1,2,3,30,A,"mask3.avi (170x170)",1787,True
14,1,1,12,70,1,1,2,3,30,A,"mask0.avi (170x170)",1481,True
14,1,1,13,104,1,1,3,1,30,A,"mask4.avi (170x170)",1458,True
14,1,1,14,154,1,1,3,1,30,A,"mask6.avi (170x170)",1872,True
14,1,1,15,89,1,1,3,2,30,A,"mask4.avi (170x170)",4611,True
14,1,1,16,91,1,1,3,2,30,A,"mask4.avi (170x170)",3328,True
14,1,1,17,55,1,1,3,3,30,A,"mask7.avi (170x170)",2987,True
14,1,1,18,71,1,1,3,3,30,A,"mask7.avi (170x170)",2586,True
14,1,1,19,190,1,1,4,1,40,APOSTROPHE,"mask2.avi (170x170)",2555,False
14,1,1,20,77,1,1,4,1,30,A,"mask2.avi (170x170)",1587,True
14,1,1,21,110,1,1,4,2,30,A,"mask2.avi (170x170)",2123,True
14,1,1,22,98,1,1,4,2,30,A,"mask7.avi (170x170)",2768,True
14,1,1,23,26,1,1,4,3,30,A,"mask7.avi (170x170)",1793,True
14,1,1,24,112,1,1,4,3,30,A,"mask1.avi (170x170)",1636,True
14,1,1,25,128,2,1,1,1,40,APOSTROPHE,"mask5.avi (170x170)",2234,True
14,1,1,26,94,2,1,1,1,40,APOSTROPHE,"mask2.avi (170x170)",2983,True
14,1,1,27,158,2,1,1,2,40,APOSTROPHE,"mask2.avi (170x170)",1305,True
14,1,1,28,99,2,1,1,2,40,APOSTROPHE,"mask8.avi (170x170)",1783,True
14,1,1,29,117,2,1,1,3,40,APOSTROPHE,"mask4.avi (170x170)",1864,True
14,1,1,30,21,2,1,1,3,40,APOSTROPHE,"mask2.avi (170x170)",3331,True
14,1,1,31,100,2,1,2,1,40,APOSTROPHE,"mask0.avi (170x170)",2796,True
14,1,1,32,66,2,1,2,1,40,APOSTROPHE,"mask2.avi (170x170)",1284,True
14,1,1,33,122,2,1,2,2,40,APOSTROPHE,"mask3.avi (170x170)",2550,True
14,1,1,34,51,2,1,2,2,30,A,"mask2.avi (170x170)",1798,False
14,1,1,35,96,2,1,2,3,40,APOSTROPHE,"mask1.avi (170x170)",1540,True
14,1,1,36,147,2,1,2,3,40,APOSTROPHE,"mask6.avi (170x170)",1771,True
14,1,1,37,164,2,1,3,1,40,APOSTROPHE,"mask3.avi (170x170)",2067,True
14,1,1,38,68,2,1,3,1,40,APOSTROPHE,"mask4.avi (170x170)",1671,True
14,1,1,39,201,2,1,3,2,40,APOSTROPHE,"mask3.avi (170x170)",2132,True
14,1,1,40,185,2,1,3,2,40,APOSTROPHE,"mask8.avi (170x170)",1720,True
14,1,1,41,95,2,1,3,3,40,APOSTROPHE,"mask3.avi (170x170)",1811,True
14,1,1,42,191,2,1,3,3,40,APOSTROPHE,"mask4.avi (170x170)",1917,True
14,1,1,43,140,2,1,4,1,40,APOSTROPHE,"mask3.avi (170x170)",2160,True
14,1,1,44,17,2,1,4,1,40,APOSTROPHE,"mask4.avi (170x170)",1433,True
14,1,1,45,194,2,1,4,2,40,APOSTROPHE,"mask1.avi (170x170)",1687,True
14,1,1,46,105,2,1,4,2,40,APOSTROPHE,"mask2.avi (170x170)",1481,True
14,1,1,47,155,2,1,4,3,40,APOSTROPHE,"mask2.avi (170x170)",1459,True
14,1,1,48,132,2,1,4,3,40,APOSTROPHE,"mask0.avi (170x170)",1206,True
14,1,1,49,36,3,1,1,1,53,/,"mask5.avi (170x170)",1595,True
14,1,1,50,65,3,1,1,1,53,/,"mask3.avi (170x170)",1560,True
14,1,1,51,82,3,1,1,2,53,/,"mask6.avi (170x170)",1468,True
14,1,1,52,169,3,1,1,2,53,/,"mask1.avi (170x170)",1619,True
14,1,1,53,39,3,1,1,3,53,/,"mask9.avi (170x170)",3205,True
14,1,1,54,157,3,1,1,3,53,/,"mask0.avi (170x170)",4860,True
14,1,1,55,14,3,1,2,1,53,/,"mask5.avi (170x170)",1423,True
14,1,1,56,180,3,1,2,1,53,/,"mask3.avi (170x170)",1341,True
14,1,1,57,176,3,1,2,2,53,/,"mask0.avi (170x170)",1404,True
14,1,1,58,97,3,1,2,2,53,/,"mask6.avi (170x170)",1627,True
14,1,1,59,40,3,1,2,3,53,/,"mask7.avi (170x170)",1564,True
14,1,1,60,142,3,1,2,3,53,/,"mask9.avi (170x170)",1761,True
14,1,1,61,106,3,1,3,1,53,/,"mask6.avi (170x170)",2645,True
14,1,1,62,165,3,1,3,1,53,/,"mask6.avi (170x170)",2520,True
14,1,1,63,115,3,1,3,2,53,/,"mask6.avi (170x170)",1690,True
14,1,1,64,150,3,1,3,2,53,/,"mask6.avi (170x170)",1540,True
14,1,1,65,43,3,1,3,3,53,/,"mask5.avi (170x170)",1492,True
14,1,1,66,16,3,1,3,3,53,/,"mask7.avi (170x170)",2139,True
14,1,1,67,62,3,1,4,1,53,/,"mask0.avi (170x170)",2068,True
14,1,1,68,108,3,1,4,1,53,/,"mask5.avi (170x170)",1916,True
14,1,1,69,74,3,1,4,2,53,/,"mask9.avi (170x170)",1638,True
14,1,1,70,134,3,1,4,2,53,/,"mask7.avi (170x170)",1738,True
14,1,1,71,159,3,1,4,3,53,/,"mask6.avi (170x170)",1103,True
14,1,1,72,73,3,1,4,3,53,/,"mask6.avi (170x170)",2115,True
14,1,1,73,156,4,1,1,1,44,Z,"mask4.avi (170x170)",2233,True
14,1,1,74,195,4,1,1,1,44,Z,"mask0.avi (170x170)",1983,True
14,1,1,75,171,4,1,1,2,44,Z,"mask9.avi (170x170)",1519,True
14,1,1,76,90,4,1,1,2,44,Z,"mask2.avi (170x170)",1657,True
14,1,1,77,151,4,1,1,3,44,Z,"mask7.avi (170x170)",3692,True
14,1,1,78,85,4,1,1,3,44,Z,"mask3.avi (170x170)",5417,True
14,1,1,79,143,4,1,2,1,44,Z,"mask5.avi (170x170)",3755,True
14,1,1,80,121,4,1,2,1,44,Z,"mask4.avi (170x170)",1597,True
14,1,1,81,186,4,1,2,2,44,Z,"mask9.avi (170x170)",2219,True
14,1,1,82,20,4,1,2,2,44,Z,"mask3.avi (170x170)",1123,True
14,1,1,83,56,4,1,2,3,44,Z,"mask8.avi (170x170)",1423,True
14,1,1,84,183,4,1,2,3,44,Z,"mask9.avi (170x170)",1455,True
14,1,1,85,135,4,1,3,1,44,Z,"mask1.avi (170x170)",1992,True
14,1,1,86,144,4,1,3,1,44,Z,"mask7.avi (170x170)",1981,True
14,1,1,87,116,4,1,3,2,44,Z,"mask7.avi (170x170)",1716,True
14,1,1,88,203,4,1,3,2,44,Z,"mask1.avi (170x170)",1321,True
14,1,1,89,174,4,1,3,3,44,Z,"mask5.avi (170x170)",2025,True
14,1,1,90,163,4,1,3,3,44,Z,"mask4.avi (170x170)",2252,True
14,1,1,91,179,4,1,4,1,53,/,"mask9.avi (170x170)",2794,False
14,1,1,92,139,4,1,4,1,44,Z,"mask5.avi (170x170)",1458,True
14,1,1,93,168,4,1,4,2,44,Z,"mask2.avi (170x170)",1591,True
14,1,1,94,61,4,1,4,2,44,Z,"mask7.avi (170x170)",1694,True
14,1,1,95,78,4,1,4,3,44,Z,"mask8.avi (170x170)",1287,True
14,1,1,96,47,4,1,4,3,30,A,"mask4.avi (170x170)",1791,False
14,1,1,97,38,1,2,1,1,30,A,"mask8.avi (170x170)",1875,True
14,1,1,98,188,1,2,1,1,30,A,"mask0.avi (170x170)",2452,True
14,1,1,99,72,1,2,1,2,30,A,"mask8.avi (170x170)",1230,True
14,1,1,100,160,1,2,1,2,30,A,"mask2.avi (170x170)",1763,True
14,1,1,101,29,1,2,1,3,30,A,"mask5.avi (170x170)",1702,True
14,1,1,102,172,1,2,1,3,30,A,"mask6.avi (170x170)",2690,True
14,1,1,103,42,1,2,2,1,30,A,"mask4.avi (170x170)",1512,True
14,1,1,104,126,1,2,2,1,30,A,"mask7.avi (170x170)",1276,True
14,1,1,105,189,1,2,2,2,30,A,"mask0.avi (170x170)",1482,True
14,1,1,106,136,1,2,2,2,30,A,"mask5.avi (170x170)",1412,True
14,1,1,107,76,1,2,2,3,30,A,"mask5.avi (170x170)",1412,True
14,1,1,108,167,1,2,2,3,30,A,"mask6.avi (170x170)",1424,True
14,1,1,109,114,1,2,3,1,30,A,"mask9.avi (170x170)",2812,True
14,1,1,110,52,1,2,3,1,30,A,"mask0.avi (170x170)",2577,True
14,1,1,111,137,1,2,3,2,30,A,"mask8.avi (170x170)",1221,True
14,1,1,112,60,1,2,3,2,30,A,"mask7.avi (170x170)",3216,True
14,1,1,113,34,1,2,3,3,30,A,"mask1.avi (170x170)",3982,True
14,1,1,114,44,1,2,3,3,30,A,"mask3.avi (170x170)",1946,True
14,1,1,115,27,1,2,4,1,30,A,"mask5.avi (170x170)",1836,True
14,1,1,116,81,1,2,4,1,30,A,"mask7.avi (170x170)",4792,True
14,1,1,117,200,1,2,4,2,30,A,"mask8.avi (170x170)",1804,True
14,1,1,118,24,1,2,4,2,30,A,"mask0.avi (170x170)",2179,True
14,1,1,119,187,1,2,4,3,30,A,"mask6.avi (170x170)",1481,True
14,1,1,120,57,1,2,4,3,30,A,"mask2.avi (170x170)",1556,True
14,1,1,121,13,2,2,1,1,40,APOSTROPHE,"mask6.avi (170x170)",1787,True
14,1,1,122,182,2,2,1,1,40,APOSTROPHE,"mask0.avi (170x170)",2697,True
14,1,1,123,80,2,2,1,2,40,APOSTROPHE,"mask9.avi (170x170)",1637,True
14,1,1,124,131,2,2,1,2,40,APOSTROPHE,"mask3.avi (170x170)",1295,True
14,1,1,125,59,2,2,1,3,40,APOSTROPHE,"mask8.avi (170x170)",4929,True
14,1,1,126,58,2,2,1,3,40,APOSTROPHE,"mask4.avi (170x170)",1398,True
14,1,1,127,146,2,2,2,1,40,APOSTROPHE,"mask0.avi (170x170)",1301,True
14,1,1,128,31,2,2,2,1,40,APOSTROPHE,"mask4.avi (170x170)",1252,True
14,1,1,129,48,2,2,2,2,40,APOSTROPHE,"mask6.avi (170x170)",1019,True
14,1,1,130,64,2,2,2,2,30,A,"mask8.avi (170x170)",1428,False
14,1,1,131,45,2,2,2,3,40,APOSTROPHE,"mask6.avi (170x170)",1543,True
14,1,1,132,28,2,2,2,3,40,APOSTROPHE,"mask6.avi (170x170)",3006,True
14,1,1,133,88,2,2,3,1,40,APOSTROPHE,"mask8.avi (170x170)",3301,True
14,1,1,134,93,2,2,3,1,40,APOSTROPHE,"mask8.avi (170x170)",4568,True
14,1,1,135,22,2,2,3,2,40,APOSTROPHE,"mask7.avi (170x170)",1371,True
14,1,1,136,87,2,2,3,2,40,APOSTROPHE,"mask6.avi (170x170)",2343,True
14,1,1,137,177,2,2,3,3,40,APOSTROPHE,"mask0.avi (170x170)",1685,True
14,1,1,138,37,2,2,3,3,40,APOSTROPHE,"mask3.avi (170x170)",3982,True
14,1,1,139,129,2,2,4,1,40,APOSTROPHE,"mask9.avi (170x170)",1756,True
14,1,1,140,193,2,2,4,1,40,APOSTROPHE,"mask9.avi (170x170)",2147,True
14,1,1,141,30,2,2,4,2,40,APOSTROPHE,"mask0.avi (170x170)",1412,True
14,1,1,142,102,2,2,4,2,40,APOSTROPHE,"mask1.avi (170x170)",2811,True
14,1,1,143,119,2,2,4,3,40,APOSTROPHE,"mask0.avi (170x170)",1811,True
14,1,1,144,111,2,2,4,3,40,APOSTROPHE,"mask9.avi (170x170)",2244,True
14,1,1,145,196,3,2,1,1,53,/,"mask8.avi (170x170)",3564,True
14,1,1,146,19,3,2,1,1,53,/,"mask1.avi (170x170)",3593,True
14,1,1,147,18,3,2,1,2,53,/,"mask9.avi (170x170)",2028,True
14,1,1,148,199,3,2,1,2,53,/,"mask2.avi (170x170)",2091,True
14,1,1,149,145,3,2,1,3,53,/,"mask1.avi (170x170)",5475,True
14,1,1,150,15,3,2,1,3,53,/,"mask9.avi (170x170)",4091,True
14,1,1,151,41,3,2,2,1,53,/,"mask4.avi (170x170)",1798,True
14,1,1,152,204,3,2,2,1,53,/,"mask3.avi (170x170)",1459,True
14,1,1,153,46,3,2,2,2,53,/,"mask1.avi (170x170)",1155,True
14,1,1,154,202,3,2,2,2,53,/,"mask3.avi (170x170)",1547,True
14,1,1,155,54,3,2,2,3,53,/,"mask8.avi (170x170)",1582,True
14,1,1,156,83,3,2,2,3,53,/,"mask1.avi (170x170)",1808,True
14,1,1,157,175,3,2,3,1,53,/,"mask9.avi (170x170)",2581,True
14,1,1,158,162,3,2,3,1,53,/,"mask3.avi (170x170)",2903,True
14,1,1,159,35,3,2,3,2,53,/,"mask3.avi (170x170)",1849,True
14,1,1,160,107,3,2,3,2,53,/,"mask5.avi (170x170)",2084,True
14,1,1,161,123,3,2,3,3,53,/,"mask8.avi (170x170)",1548,True
14,1,1,162,25,3,2,3,3,53,/,"mask7.avi (170x170)",2649,True
14,1,1,163,161,3,2,4,1,53,/,"mask6.avi (170x170)",1916,True
14,1,1,164,149,3,2,4,1,53,/,"mask9.avi (170x170)",2264,True
14,1,1,165,69,3,2,4,2,53,/,"mask3.avi (170x170)",3300,True
14,1,1,166,86,3,2,4,2,53,/,"mask1.avi (170x170)",2958,True
14,1,1,167,138,3,2,4,3,53,/,"mask3.avi (170x170)",1859,True
14,1,1,168,127,3,2,4,3,53,/,"mask1.avi (170x170)",2839,True
14,1,1,169,141,4,2,1,1,44,Z,"mask2.avi (170x170)",3339,True
14,1,1,170,198,4,2,1,1,44,Z,"mask0.avi (170x170)",2081,True
14,1,1,171,67,4,2,1,2,44,Z,"mask7.avi (170x170)",1996,True
14,1,1,172,170,4,2,1,2,44,Z,"mask4.avi (170x170)",1506,True
14,1,1,173,53,4,2,1,3,44,Z,"mask2.avi (170x170)",1616,True
14,1,1,174,120,4,2,1,3,44,Z,"mask1.avi (170x170)",3683,True
14,1,1,175,148,4,2,2,1,44,Z,"mask0.avi (170x170)",2507,True
14,1,1,176,181,4,2,2,1,44,Z,"mask5.avi (170x170)",1427,True
14,1,1,177,75,4,2,2,2,53,/,"mask2.avi (170x170)",1593,False
14,1,1,178,133,4,2,2,2,44,Z,"mask7.avi (170x170)",1319,True
14,1,1,179,192,4,2,2,3,44,Z,"mask8.avi (170x170)",1920,True
14,1,1,180,166,4,2,2,3,44,Z,"mask9.avi (170x170)",2530,True
14,1,1,181,153,4,2,3,1,44,Z,"mask5.avi (170x170)",1858,True
14,1,1,182,50,4,2,3,1,44,Z,"mask8.avi (170x170)",2115,True
14,1,1,183,84,4,2,3,2,44,Z,"mask1.avi (170x170)",1929,True
14,1,1,184,152,4,2,3,2,44,Z,"mask5.avi (170x170)",1780,True
14,1,1,185,101,4,2,3,3,44,Z,"mask7.avi (170x170)",4535,True
14,1,1,186,113,4,2,3,3,44,Z,"mask1.avi (170x170)",6144,True
14,1,1,187,178,4,2,4,1,44,Z,"mask9.avi (170x170)",1262,True
14,1,1,188,63,4,2,4,1,44,Z,"mask5.avi (170x170)",1881,True
14,1,1,189,184,4,2,4,2,44,Z,"mask5.avi (170x170)",1917,True
14,1,1,190,125,4,2,4,2,44,Z,"mask1.avi (170x170)",1171,True
14,1,1,191,92,4,2,4,3,44,Z,"mask5.avi (170x170)",4600,True
14,1,1,192,124,4,2,4,3,44,Z,"mask0.avi (170x170)",1431,True
15,1,1,1,164,1,1,1,1,30,A,"mask8.avi (170x170)",1424,True
15,1,1,2,178,1,1,1,1,30,A,"mask1.avi (170x170)",875,True
15,1,1,3,165,1,1,1,2,30,A,"mask1.avi (170x170)",1219,True
15,1,1,4,195,1,1,1,2,30,A,"mask8.avi (170x170)",1300,True
15,1,1,5,80,1,1,1,3,30,A,"mask2.avi (170x170)",820,True
15,1,1,6,158,1,1,1,3,44,Z,"mask4.avi (170x170)",1024,False
15,1,1,7,105,1,1,2,1,30,A,"mask4.avi (170x170)",771,True
15,1,1,8,77,1,1,2,1,30,A,"mask9.avi (170x170)",776,True
15,1,1,9,166,1,1,2,2,30,A,"mask4.avi (170x170)",2249,True
15,1,1,10,74,1,1,2,2,30,A,"mask2.avi (170x170)",858,True
15,1,1,11,143,1,1,2,3,30,A,"mask3.avi (170x170)",898,True
15,1,1,12,86,1,1,2,3,30,A,"mask0.avi (170x170)",1286,True
15,1,1,13,64,1,1,3,1,30,A,"mask4.avi (170x170)",1187,True
15,1,1,14,201,1,1,3,1,30,A,"mask6.avi (170x170)",1241,True
15,1,1,15,48,1,1,3,2,30,A,"mask4.avi (170x170)",1211,True
15,1,1,16,94,1,1,3,2,30,A,"mask4.avi (170x170)",967,True
15,1,1,17,38,1,1,3,3,30,A,"mask7.avi (170x170)",1173,True
15,1,1,18,174,1,1,3,3,30,A,"mask7.avi (170x170)",806,True
15,1,1,19,109,1,1,4,1,30,A,"mask2.avi (170x170)",1281,True
15,1,1,20,135,1,1,4,1,30,A,"mask2.avi (170x170)",679,True
15,1,1,21,198,1,1,4,2,30,A,"mask2.avi (170x170)",909,True
15,1,1,22,133,1,1,4,2,30,A,"mask7.avi (170x170)",861,True
15,1,1,23,104,1,1,4,3,30,A,"mask7.avi (170x170)",813,True
15,1,1,24,179,1,1,4,3,30,A,"mask1.avi (170x170)",548,True
15,1,1,25,67,2,1,1,1,40,APOSTROPHE,"mask5.avi (170x170)",1416,True
15,1,1,26,141,2,1,1,1,40,APOSTROPHE,"mask2.avi (170x170)",979,True
15,1,1,27,151,2,1,1,2,40,APOSTROPHE,"mask2.avi (170x170)",1618,True
15,1,1,28,156,2,1,1,2,40,APOSTROPHE,"mask8.avi (170x170)",862,True
15,1,1,29,91,2,1,1,3,40,APOSTROPHE,"mask4.avi (170x170)",689,True
15,1,1,30,191,2,1,1,3,40,APOSTROPHE,"mask2.avi (170x170)",899,True
15,1,1,31,95,2,1,2,1,40,APOSTROPHE,"mask0.avi (170x170)",636,True
15,1,1,32,168,2,1,2,1,40,APOSTROPHE,"mask2.avi (170x170)",3711,True
15,1,1,33,79,2,1,2,2,40,APOSTROPHE,"mask3.avi (170x170)",795,True
15,1,1,34,73,2,1,2,2,40,APOSTROPHE,"mask2.avi (170x170)",753,True
15,1,1,35,90,2,1,2,3,40,APOSTROPHE,"mask1.avi (170x170)",820,True
15,1,1,36,84,2,1,2,3,40,APOSTROPHE,"mask6.avi (170x170)",876,True
15,1,1,37,52,2,1,3,1,40,APOSTROPHE,"mask3.avi (170x170)",2491,True
15,1,1,38,23,2,1,3,1,40,APOSTROPHE,"mask4.avi (170x170)",1265,True
15,1,1,39,14,2,1,3,2,40,APOSTROPHE,"mask3.avi (170x170)",2609,True
15,1,1,40,25,2,1,3,2,40,APOSTROPHE,"mask8.avi (170x170)",4381,True
15,1,1,41,101,2,1,3,3,40,APOSTROPHE,"mask3.avi (170x170)",888,True
15,1,1,42,184,2,1,3,3,40,APOSTROPHE,"mask4.avi (170x170)",784,True
15,1,1,43,102,2,1,4,1,40,APOSTROPHE,"mask3.avi (170x170)",640,True
15,1,1,44,55,2,1,4,1,40,APOSTROPHE,"mask4.avi (170x170)",743,True
15,1,1,45,87,2,1,4,2,40,APOSTROPHE,"mask1.avi (170x170)",694,True
15,1,1,46,119,2,1,4,2,40,APOSTROPHE,"mask2.avi (170x170)",1056,True
15,1,1,47,17,2,1,4,3,40,APOSTROPHE,"mask2.avi (170x170)",1017,True
15,1,1,48,40,2,1,4,3,40,APOSTROPHE,"mask0.avi (170x170)",763,True
15,1,1,49,60,3,1,1,1,53,/,"mask5.avi (170x170)",554,True
15,1,1,50,31,3,1,1,1,53,/,"mask3.avi (170x170)",887,True
15,1,1,51,39,3,1,1,2,53,/,"mask6.avi (170x170)",924,True
15,1,1,52,70,3,1,1,2,53,/,"mask1.avi (170x170)",678,True
15,1,1,53,33,3,1,1,3,53,/,"mask9.avi (170x170)",808,True
15,1,1,54,148,3,1,1,3,53,/,"mask0.avi (170x170)",1182,True
15,1,1,55,137,3,1,2,1,53,/,"mask5.avi (170x170)",700,True
15,1,1,56,30,3,1,2,1,53,/,"mask3.avi (170x170)",1137,True
15,1,1,57,154,3,1,2,2,53,/,"mask0.avi (170x170)",698,True
15,1,1,58,37,3,1,2,2,53,/,"mask6.avi (170x170)",1408,True
15,1,1,59,131,3,1,2,3,53,/,"mask7.avi (170x170)",955,True
15,1,1,60,16,3,1,2,3,53,/,"mask9.avi (170x170)",2134,True
15,1,1,61,36,3,1,3,1,53,/,"mask6.avi (170x170)",1518,True
15,1,1,62,46,3,1,3,1,53,/,"mask6.avi (170x170)",2139,True
15,1,1,63,42,3,1,3,2,53,/,"mask6.avi (170x170)",1400,True
15,1,1,64,188,3,1,3,2,53,/,"mask6.avi (170x170)",738,True
15,1,1,65,173,3,1,3,3,53,/,"mask5.avi (170x170)",755,True
15,1,1,66,153,3,1,3,3,53,/,"mask7.avi (170x170)",1432,True
15,1,1,67,116,3,1,4,1,53,/,"mask0.avi (170x170)",887,True
15,1,1,68,123,3,1,4,1,53,/,"mask5.avi (170x170)",1610,True
15,1,1,69,129,3,1,4,2,53,/,"mask9.avi (170x170)",809,True
15,1,1,70,59,3,1,4,2,53,/,"mask7.avi (170x170)",800,True
15,1,1,71,130,3,1,4,3,53,/,"mask6.avi (170x170)",1264,True
15,1,1,72,45,3,1,4,3,53,/,"mask6.avi (170x170)",1455,True
15,1,1,73,204,4,1,1,1,44,Z,"mask4.avi (170x170)",1080,True
15,1,1,74,142,4,1,1,1,44,Z,"mask0.avi (170x170)",863,True
15,1,1,75,63,4,1,1,2,44,Z,"mask9.avi (170x170)",945,True
15,1,1,76,115,4,1,1,2,44,Z,"mask2.avi (170x170)",919,True
15,1,1,77,113,4,1,1,3,44,Z,"mask7.avi (170x170)",1006,True
15,1,1,78,54,4,1,1,3,44,Z,"mask3.avi (170x170)",1049,True
15,1,1,79,172,4,1,2,1,44,Z,"mask5.avi (170x170)",666,True
15,1,1,80,147,4,1,2,1,44,Z,"mask4.avi (170x170)",716,True
15,1,1,81,20,4,1,2,2,44,Z,"mask9.avi (170x170)",692,True
15,1,1,82,152,4,1,2,2,44,Z,"mask3.avi (170x170)",680,True
15,1,1,83,68,4,1,2,3,44,Z,"mask8.avi (170x170)",1597,True
15,1,1,84,128,4,1,2,3,44,Z,"mask9.avi (170x170)",2011,True
15,1,1,85,106,4,1,3,1,44,Z,"mask1.avi (170x170)",690,True
15,1,1,86,32,4,1,3,1,44,Z,"mask7.avi (170x170)",839,True
15,1,1,87,49,4,1,3,2,44,Z,"mask7.avi (170x170)",873,True
15,1,1,88,98,4,1,3,2,44,Z,"mask1.avi (170x170)",696,True
15,1,1,89,19,4,1,3,3,44,Z,"mask5.avi (170x170)",946,True
15,1,1,90,176,4,1,3,3,44,Z,"mask4.avi (170x170)",1311,True
15,1,1,91,78,4,1,4,1,44,Z,"mask9.avi (170x170)",573,True
15,1,1,92,27,4,1,4,1,44,Z,"mask5.avi (170x170)",1114,True
15,1,1,93,97,4,1,4,2,44,Z,"mask2.avi (170x170)",916,True
15,1,1,94,145,4,1,4,2,44,Z,"mask7.avi (170x170)",801,True
15,1,1,95,136,4,1,4,3,53,/,"mask8.avi (170x170)",840,False
15,1,1,96,118,4,1,4,3,44,Z,"mask4.avi (170x170)",1022,True
15,1,1,97,181,1,2,1,1,30,A,"mask8.avi (170x170)",1007,True
15,1,1,98,157,1,2,1,1,30,A,"mask0.avi (170x170)",1121,True
15,1,1,99,34,1,2,1,2,44,Z,"mask8.avi (170x170)",1279,False
15,1,1,100,134,1,2,1,2,30,A,"mask2.avi (170x170)",1177,True
15,1,1,101,170,1,2,1,3,30,A,"mask5.avi (170x170)",919,True
15,1,1,102,44,1,2,1,3,30,A,"mask6.avi (170x170)",957,True
15,1,1,103,202,1,2,2,1,30,A,"mask4.avi (170x170)",802,True
15,1,1,104,81,1,2,2,1,30,A,"mask7.avi (170x170)",945,True
15,1,1,105,51,1,2,2,2,30,A,"mask0.avi (170x170)",804,True
15,1,1,106,197,1,2,2,2,40,APOSTROPHE,"mask5.avi (170x170)",866,False
15,1,1,107,140,1,2,2,3,30,A,"mask5.avi (170x170)",793,True
15,1,1,108,192,1,2,2,3,30,A,"mask6.avi (170x170)",1024,True
15,1,1,109,93,1,2,3,1,30,A,"mask9.avi (170x170)",797,True
15,1,1,110,15,1,2,3,1,30,A,"mask0.avi (170x170)",2207,True
15,1,1,111,122,1,2,3,2,30,A,"mask8.avi (170x170)",673,True
15,1,1,112,41,1,2,3,2,30,A,"mask7.avi (170x170)",1660,True
15,1,1,113,163,1,2,3,3,40,APOSTROPHE,"mask1.avi (170x170)",1881,False
15,1,1,114,56,1,2,3,3,30,A,"mask3.avi (170x170)",931,True
15,1,1,115,132,1,2,4,1,30,A,"mask5.avi (170x170)",877,True
15,1,1,116,72,1,2,4,1,30,A,"mask7.avi (170x170)",890,True
15,1,1,117,183,1,2,4,2,30,A,"mask8.avi (170x170)",822,True
15,1,1,118,190,1,2,4,2,30,A,"mask0.avi (170x170)",1812,True
15,1,1,119,53,1,2,4,3,30,A,"mask6.avi (170x170)",1041,True
15,1,1,120,203,1,2,4,3,30,A,"mask2.avi (170x170)",729,True
15,1,1,121,182,2,2,1,1,40,APOSTROPHE,"mask6.avi (170x170)",846,True
15,1,1,122,185,2,2,1,1,40,APOSTROPHE,"mask0.avi (170x170)",948,True
15,1,1,123,100,2,2,1,2,40,APOSTROPHE,"mask9.avi (170x170)",600,True
15,1,1,124,144,2,2,1,2,40,APOSTROPHE,"mask3.avi (170x170)",960,True
15,1,1,125,180,2,2,1,3,40,APOSTROPHE,"mask8.avi (170x170)",967,True
15,1,1,126,28,2,2,1,3,40,APOSTROPHE,"mask4.avi (170x170)",1420,True
15,1,1,127,22,2,2,2,1,40,APOSTROPHE,"mask0.avi (170x170)",699,True
15,1,1,128,169,2,2,2,1,40,APOSTROPHE,"mask4.avi (170x170)",1290,True
15,1,1,129,103,2,2,2,2,40,APOSTROPHE,"mask6.avi (170x170)",836,True
15,1,1,130,57,2,2,2,2,40,APOSTROPHE,"mask8.avi (170x170)",986,True
15,1,1,131,127,2,2,2,3,40,APOSTROPHE,"mask6.avi (170x170)",703,True
15,1,1,132,108,2,2,2,3,40,APOSTROPHE,"mask6.avi (170x170)",761,True
15,1,1,133,50,2,2,3,1,40,APOSTROPHE,"mask8.avi (170x170)",1235,True
15,1,1,134,160,2,2,3,1,53,/,"mask8.avi (170x170)",682,False
15,1,1,135,117,2,2,3,2,40,APOSTROPHE,"mask7.avi (170x170)",887,True
15,1,1,136,162,2,2,3,2,40,APOSTROPHE,"mask6.avi (170x170)",2031,True
15,1,1,137,159,2,2,3,3,40,APOSTROPHE,"mask0.avi (170x170)",781,True
15,1,1,138,186,2,2,3,3,40,APOSTROPHE,"mask3.avi (170x170)",831,True
15,1,1,139,75,2,2,4,1,40,APOSTROPHE,"mask9.avi (170x170)",815,True
15,1,1,140,149,2,2,4,1,40,APOSTROPHE,"mask9.avi (170x170)",819,True
15,1,1,141,61,2,2,4,2,40,APOSTROPHE,"mask0.avi (170x170)",867,True
15,1,1,142,112,2,2,4,2,40,APOSTROPHE,"mask1.avi (170x170)",1337,True
15,1,1,143,196,2,2,4,3,40,APOSTROPHE,"mask0.avi (170x170)",793,True
15,1,1,144,47,2,2,4,3,40,APOSTROPHE,"mask9.avi (170x170)",1376,True
15,1,1,145,65,3,2,1,1,53,/,"mask8.avi (170x170)",1382,True
15,1,1,146,26,3,2,1,1,53,/,"mask1.avi (170x170)",2355,True
15,1,1,147,83,3,2,1,2,53,/,"mask9.avi (170x170)",874,True
15,1,1,148,124,3,2,1,2,53,/,"mask2.avi (170x170)",729,True
15,1,1,149,175,3,2,1,3,53,/,"mask1.avi (170x170)",877,True
15,1,1,150,43,3,2,1,3,53,/,"mask9.avi (170x170)",1306,True
15,1,1,151,89,3,2,2,1,44,Z,"mask4.avi (170x170)",682,False
15,1,1,152,120,3,2,2,1,53,/,"mask3.avi (170x170)",862,True
15,1,1,153,29,3,2,2,2,53,/,"mask1.avi (170x170)",872,True
15,1,1,154,62,3,2,2,2,53,/,"mask3.avi (170x170)",598,True
15,1,1,155,187,3,2,2,3,53,/,"mask8.avi (170x170)",792,True
15,1,1,156,35,3,2,2,3,53,/,"mask1.avi (170x170)",1127,True
15,1,1,157,13,3,2,3,1,53,/,"mask9.avi (170x170)",1001,True
15,1,1,158,58,3,2,3,1,53,/,"mask3.avi (170x170)",1109,True
15,1,1,159,114,3,2,3,2,53,/,"mask3.avi (170x170)",1238,True
15,1,1,160,21,3,2,3,2,53,/,"mask5.avi (170x170)",795,True
15,1,1,161,177,3,2,3,3,53,/,"mask8.avi (170x170)",793,True
15,1,1,162,76,3,2,3,3,53,/,"mask7.avi (170x170)",749,True
15,1,1,163,138,3,2,4,1,53,/,"mask6.avi (170x170)",856,True
15,1,1,164,69,3,2,4,1,53,/,"mask9.avi (170x170)",1238,True
15,1,1,165,161,3,2,4,2,53,/,"mask3.avi (170x170)",977,True
15,1,1,166,125,3,2,4,2,53,/,"mask1.avi (170x170)",608,True
15,1,1,167,110,3,2,4,3,53,/,"mask3.avi (170x170)",1049,True
15,1,1,168,167,3,2,4,3,53,/,"mask1.avi (170x170)",1479,True
15,1,1,169,189,4,2,1,1,44,Z,"mask2.avi (170x170)",1415,True
15,1,1,170,139,4,2,1,1,44,Z,"mask0.avi (170x170)",909,True
15,1,1,171,199,4,2,1,2,44,Z,"mask7.avi (170x170)",1081,True
15,1,1,172,71,4,2,1,2,44,Z,"mask4.avi (170x170)",841,True
15,1,1,173,200,4,2,1,3,44,Z,"mask2.avi (170x170)",649,True
15,1,1,174,99,4,2,1,3,44,Z,"mask1.avi (170x170)",709,True
15,1,1,175,194,4,2,2,1,44,Z,"mask0.avi (170x170)",624,True
15,1,1,176,121,4,2,2,1,44,Z,"mask5.avi (170x170)",689,True
15,1,1,177,126,4,2,2,2,44,Z,"mask2.avi (170x170)",768,True
15,1,1,178,82,4,2,2,2,44,Z,"mask7.avi (170x170)",822,True
15,1,1,179,88,4,2,2,3,44,Z,"mask8.avi (170x170)",850,True
15,1,1,180,85,4,2,2,3,44,Z,"mask9.avi (170x170)",876,True
15,1,1,181,146,4,2,3,1,44,Z,"mask5.avi (170x170)",945,True
15,1,1,182,107,4,2,3,1,44,Z,"mask8.avi (170x170)",961,True
15,1,1,183,150,4,2,3,2,44,Z,"mask1.avi (170x170)",703,True
15,1,1,184,92,4,2,3,2,44,Z,"mask5.avi (170x170)",775,True
15,1,1,185,18,4,2,3,3,44,Z,"mask7.avi (170x170)",1103,True
15,1,1,186,24,4,2,3,3,44,Z,"mask1.avi (170x170)",1676,True
15,1,1,187,171,4,2,4,1,44,Z,"mask9.avi (170x170)",770,True
15,1,1,188,193,4,2,4,1,44,Z,"mask5.avi (170x170)",782,True
15,1,1,189,111,4,2,4,2,44,Z,"mask5.avi (170x170)",1151,True
15,1,1,190,155,4,2,4,2,44,Z,"mask1.avi (170x170)",887,True
15,1,1,191,66,4,2,4,3,44,Z,"mask5.avi (170x170)",849,True
15,1,1,192,96,4,2,4,3,44,Z,"mask0.avi (170x170)",814,True
16,1,1,1,23,1,1,1,1,30,A,"mask8.avi (170x170)",1684,True
16,1,1,2,32,1,1,1,1,30,A,"mask1.avi (170x170)",2422,True
16,1,1,3,55,1,1,1,2,30,A,"mask1.avi (170x170)",3392,True
16,1,1,4,70,1,1,1,2,30,A,"mask8.avi (170x170)",1382,True
16,1,1,5,92,1,1,1,3,30,A,"mask2.avi (170x170)",1062,True
16,1,1,6,157,1,1,1,3,40,APOSTROPHE,"mask4.avi (170x170)",1741,False
16,1,1,7,85,1,1,2,1,30,A,"mask4.avi (170x170)",1722,True
16,1,1,8,24,1,1,2,1,30,A,"mask9.avi (170x170)",1325,True
16,1,1,9,42,1,1,2,2,30,A,"mask4.avi (170x170)",1389,True
16,1,1,10,129,1,1,2,2,30,A,"mask2.avi (170x170)",1814,True
16,1,1,11,151,1,1,2,3,30,A,"mask3.avi (170x170)",2499,True
16,1,1,12,180,1,1,2,3,30,A,"mask0.avi (170x170)",2689,True
16,1,1,13,112,1,1,3,1,30,A,"mask4.avi (170x170)",1243,True
16,1,1,14,128,1,1,3,1,30,A,"mask6.avi (170x170)",5448,True
16,1,1,15,49,1,1,3,2,30,A,"mask4.avi (170x170)",2385,True
16,1,1,16,116,1,1,3,2,30,A,"mask4.avi (170x170)",1382,True
16,1,1,17,57,1,1,3,3,40,APOSTROPHE,"mask7.avi (170x170)",2025,False
16,1,1,18,38,1,1,3,3,30,A,"mask7.avi (170x170)",5067,True
16,1,1,19,33,1,1,4,1,30,A,"mask2.avi (170x170)",2690,True
16,1,1,20,132,1,1,4,1,30,A,"mask2.avi (170x170)",1628,True
16,1,1,21,123,1,1,4,2,30,A,"mask2.avi (170x170)",2030,True
16,1,1,22,84,1,1,4,2,30,A,"mask7.avi (170x170)",4171,True
16,1,1,23,130,1,1,4,3,30,A,"mask7.avi (170x170)",2052,True
16,1,1,24,145,1,1,4,3,30,A,"mask1.avi (170x170)",1659,True
16,1,1,25,54,2,1,1,1,40,APOSTROPHE,"mask5.avi (170x170)",1888,True
16,1,1,26,158,2,1,1,1,40,APOSTROPHE,"mask2.avi (170x170)",1092,True
16,1,1,27,113,2,1,1,2,40,APOSTROPHE,"mask2.avi (170x170)",1148,True
16,1,1,28,21,2,1,1,2,40,APOSTROPHE,"mask8.avi (170x170)",1434,True
16,1,1,29,179,2,1,1,3,40,APOSTROPHE,"mask4.avi (170x170)",3769,True
16,1,1,30,169,2,1,1,3,40,APOSTROPHE,"mask2.avi (170x170)",4192,True
16,1,1,31,120,2,1,2,1,40,APOSTROPHE,"mask0.avi (170x170)",2298,True
16,1,1,32,182,2,1,2,1,40,APOSTROPHE,"mask2.avi (170x170)",1225,True
16,1,1,33,162,2,1,2,2,40,APOSTROPHE,"mask3.avi (170x170)",1258,True
16,1,1,34,197,2,1,2,2,40,APOSTROPHE,"mask2.avi (170x170)",1224,True
16,1,1,35,136,2,1,2,3,40,APOSTROPHE,"mask1.avi (170x170)",1077,True
16,1,1,36,89,2,1,2,3,40,APOSTROPHE,"mask6.avi (170x170)",1942,True
16,1,1,37,35,2,1,3,1,40,APOSTROPHE,"mask3.avi (170x170)",1731,True
16,1,1,38,167,2,1,3,1,40,APOSTROPHE,"mask4.avi (170x170)",6273,True
16,1,1,39,102,2,1,3,2,40,APOSTROPHE,"mask3.avi (170x170)",1707,True
16,1,1,40,181,2,1,3,2,40,APOSTROPHE,"mask8.avi (170x170)",2209,True
16,1,1,41,147,2,1,3,3,40,APOSTROPHE,"mask3.avi (170x170)",3021,True
16,1,1,42,74,2,1,3,3,40,APOSTROPHE,"mask4.avi (170x170)",2564,True
16,1,1,43,22,2,1,4,1,40,APOSTROPHE,"mask3.avi (170x170)",1373,True
16,1,1,44,75,2,1,4,1,40,APOSTROPHE,"mask4.avi (170x170)",1308,True
16,1,1,45,118,2,1,4,2,40,APOSTROPHE,"mask1.avi (170x170)",1049,True
16,1,1,46,31,2,1,4,2,40,APOSTROPHE,"mask2.avi (170x170)",1375,True
16,1,1,47,64,2,1,4,3,40,APOSTROPHE,"mask2.avi (170x170)",1954,True
16,1,1,48,48,2,1,4,3,40,APOSTROPHE,"mask0.avi (170x170)",2459,True
16,1,1,49,81,3,1,1,1,53,/,"mask5.avi (170x170)",3843,True
16,1,1,50,186,3,1,1,1,53,/,"mask3.avi (170x170)",1955,True
16,1,1,51,191,3,1,1,2,53,/,"mask6.avi (170x170)",2310,True
16,1,1,52,108,3,1,1,2,53,/,"mask1.avi (170x170)",1983,True
16,1,1,53,192,3,1,1,3,53,/,"mask9.avi (170x170)",2066,True
16,1,1,54,110,3,1,1,3,53,/,"mask0.avi (170x170)",3300,True
16,1,1,55,150,3,1,2,1,53,/,"mask5.avi (170x170)",1242,True
16,1,1,56,41,3,1,2,1,53,/,"mask3.avi (170x170)",2031,True
16,1,1,57,106,3,1,2,2,53,/,"mask0.avi (170x170)",1704,True
16,1,1,58,58,3,1,2,2,53,/,"mask6.avi (170x170)",1357,True
16,1,1,59,135,3,1,2,3,53,/,"mask7.avi (170x170)",2772,True
16,1,1,60,51,3,1,2,3,53,/,"mask9.avi (170x170)",3149,True
16,1,1,61,131,3,1,3,1,53,/,"mask6.avi (170x170)",1770,True
16,1,1,62,160,3,1,3,1,53,/,"mask6.avi (170x170)",2418,True
16,1,1,63,60,3,1,3,2,53,/,"mask6.avi (170x170)",1593,True
16,1,1,64,193,3,1,3,2,53,/,"mask6.avi (170x170)",2798,True
16,1,1,65,139,3,1,3,3,53,/,"mask5.avi (170x170)",5654,True
16,1,1,66,176,3,1,3,3,53,/,"mask7.avi (170x170)",4483,True
16,1,1,67,175,3,1,4,1,53,/,"mask0.avi (170x170)",2271,True
16,1,1,68,45,3,1,4,1,53,/,"mask5.avi (170x170)",2712,True
16,1,1,69,109,3,1,4,2,53,/,"mask9.avi (170x170)",1421,True
16,1,1,70,170,3,1,4,2,53,/,"mask7.avi (170x170)",2100,True
16,1,1,71,187,3,1,4,3,53,/,"mask6.avi (170x170)",2853,True
16,1,1,72,199,3,1,4,3,53,/,"mask6.avi (170x170)",1693,True
16,1,1,73,148,4,1,1,1,44,Z,"mask4.avi (170x170)",3356,True
16,1,1,74,65,4,1,1,1,44,Z,"mask0.avi (170x170)",3236,True
16,1,1,75,140,4,1,1,2,44,Z,"mask9.avi (170x170)",1763,True
16,1,1,76,200,4,1,1,2,44,Z,"mask2.avi (170x170)",3171,True
16,1,1,77,72,4,1,1,3,53,/,"mask7.avi (170x170)",2803,False
16,1,1,78,16,4,1,1,3,44,Z,"mask3.avi (170x170)",1373,True
16,1,1,79,146,4,1,2,1,44,Z,"mask5.avi (170x170)",1434,True
16,1,1,80,144,4,1,2,1,44,Z,"mask4.avi (170x170)",1771,True
16,1,1,81,166,4,1,2,2,44,Z,"mask9.avi (170x170)",2398,True
16,1,1,82,80,4,1,2,2,44,Z,"mask3.avi (170x170)",2719,True
16,1,1,83,59,4,1,2,3,44,Z,"mask8.avi (170x170)",1448,True
16,1,1,84,26,4,1,2,3,44,Z,"mask9.avi (170x170)",1379,True
16,1,1,85,198,4,1,3,1,44,Z,"mask1.avi (170x170)",1573,True
16,1,1,86,69,4,1,3,1,44,Z,"mask7.avi (170x170)",1535,True
16,1,1,87,183,4,1,3,2,44,Z,"mask7.avi (170x170)",1671,True
16,1,1,88,66,4,1,3,2,44,Z,"mask1.avi (170x170)",3534,True
16,1,1,89,30,4,1,3,3,44,Z,"mask5.avi (170x170)",2868,True
16,1,1,90,17,4,1,3,3,44,Z,"mask4.avi (170x170)",3132,True
16,1,1,91,188,4,1,4,1,44,Z,"mask9.avi (170x170)",2564,True
16,1,1,92,100,4,1,4,1,44,Z,"mask5.avi (170x170)",1313,True
16,1,1,93,25,4,1,4,2,44,Z,"mask2.avi (170x170)",3022,True
16,1,1,94,99,4,1,4,2,44,Z,"mask7.avi (170x170)",1639,True
16,1,1,95,204,4,1,4,3,44,Z,"mask8.avi (170x170)",2093,True
16,1,1,96,19,4,1,4,3,44,Z,"mask4.avi (170x170)",2069,True
16,1,1,97,202,1,2,1,1,44,Z,"mask8.avi (170x170)",2812,False
16,1,1,98,105,1,2,1,1,30,A,"mask0.avi (170x170)",1806,True
16,1,1,99,171,1,2,1,2,30,A,"mask8.avi (170x170)",1194,True
16,1,1,100,61,1,2,1,2,30,A,"mask2.avi (170x170)",1429,True
16,1,1,101,149,1,2,1,3,30,A,"mask5.avi (170x170)",1869,True
16,1,1,102,43,1,2,1,3,30,A,"mask6.avi (170x170)",3129,True
16,1,1,103,190,1,2,2,1,30,A,"mask4.avi (170x170)",1324,True
16,1,1,104,79,1,2,2,1,30,A,"mask7.avi (170x170)",747,True
16,1,1,105,184,1,2,2,2,30,A,"mask0.avi (170x170)",1531,True
16,1,1,106,46,1,2,2,2,30,A,"mask5.avi (170x170)",1596,True
16,1,1,107,34,1,2,2,3,30,A,"mask5.avi (170x170)",1411,True
16,1,1,108,155,1,2,2,3,30,A,"mask6.avi (170x170)",1196,True
16,1,1,109,138,1,2,3,1,30,A,"mask9.avi (170x170)",1966,True
16,1,1,110,103,1,2,3,1,30,A,"mask0.avi (170x170)",1303,True
16,1,1,111,90,1,2,3,2,30,A,"mask8.avi (170x170)",1009,True
16,1,1,112,168,1,2,3,2,30,A,"mask7.avi (170x170)",2148,True
16,1,1,113,97,1,2,3,3,30,A,"mask1.avi (170x170)",1613,True
16,1,1,114,62,1,2,3,3,30,A,"mask3.avi (170x170)",3113,True
16,1,1,115,122,1,2,4,1,30,A,"mask5.avi (170x170)",1595,True
16,1,1,116,77,1,2,4,1,30,A,"mask7.avi (170x170)",1696,True
16,1,1,117,98,1,2,4,2,30,A,"mask8.avi (170x170)",1276,True
16,1,1,118,73,1,2,4,2,30,A,"mask0.avi (170x170)",1092,True
16,1,1,119,196,1,2,4,3,30,A,"mask6.avi (170x170)",1448,True
16,1,1,120,203,1,2,4,3,30,A,"mask2.avi (170x170)",34,True
16,1,1,121,127,2,2,1,1,40,APOSTROPHE,"mask6.avi (170x170)",1717,True
16,1,1,122,107,2,2,1,1,40,APOSTROPHE,"mask0.avi (170x170)",1587,True
16,1,1,123,115,2,2,1,2,40,APOSTROPHE,"mask9.avi (170x170)",1316,True
16,1,1,124,78,2,2,1,2,40,APOSTROPHE,"mask3.avi (170x170)",1502,True
16,1,1,125,153,2,2,1,3,40,APOSTROPHE,"mask8.avi (170x170)",2373,True
16,1,1,126,47,2,2,1,3,30,A,"mask4.avi (170x170)",1583,False
16,1,1,127,14,2,2,2,1,40,APOSTROPHE,"mask0.avi (170x170)",1221,True
16,1,1,128,125,2,2,2,1,40,APOSTROPHE,"mask4.avi (170x170)",1623,True
16,1,1,129,71,2,2,2,2,40,APOSTROPHE,"mask6.avi (170x170)",1291,True
16,1,1,130,44,2,2,2,2,40,APOSTROPHE,"mask8.avi (170x170)",1576,True
16,1,1,131,36,2,2,2,3,40,APOSTROPHE,"mask6.avi (170x170)",2930,True
16,1,1,132,53,2,2,2,3,40,APOSTROPHE,"mask6.avi (170x170)",2148,True
16,1,1,133,87,2,2,3,1,40,APOSTROPHE,"mask8.avi (170x170)",2027,True
16,1,1,134,124,2,2,3,1,40,APOSTROPHE,"mask8.avi (170x170)",3819,True
16,1,1,135,134,2,2,3,2,40,APOSTROPHE,"mask7.avi (170x170)",2681,True
16,1,1,136,37,2,2,3,2,40,APOSTROPHE,"mask6.avi (170x170)",5202,True
16,1,1,137,15,2,2,3,3,40,APOSTROPHE,"mask0.avi (170x170)",1524,True
16,1,1,138,164,2,2,3,3,40,APOSTROPHE,"mask3.avi (170x170)",3664,True
16,1,1,139,91,2,2,4,1,40,APOSTROPHE,"mask9.avi (170x170)",1836,True
16,1,1,140,126,2,2,4,1,40,APOSTROPHE,"mask9.avi (170x170)",2251,True
16,1,1,141,163,2,2,4,2,40,APOSTROPHE,"mask0.avi (170x170)",2297,True
16,1,1,142,39,2,2,4,2,40,APOSTROPHE,"mask1.avi (170x170)",1502,True
16,1,1,143,195,2,2,4,3,40,APOSTROPHE,"mask0.avi (170x170)",3008,True
16,1,1,144,82,2,2,4,3,40,APOSTROPHE,"mask9.avi (170x170)",2548,True
16,1,1,145,111,3,2,1,1,53,/,"mask8.avi (170x170)",2201,True
16,1,1,146,165,3,2,1,1,53,/,"mask1.avi (170x170)",3427,True
16,1,1,147,189,3,2,1,2,53,/,"mask9.avi (170x170)",1564,True
16,1,1,148,117,3,2,1,2,53,/,"mask2.avi (170x170)",2178,True
16,1,1,149,133,3,2,1,3,53,/,"mask1.avi (170x170)",3240,True
16,1,1,150,18,3,2,1,3,53,/,"mask9.avi (170x170)",2644,True
16,1,1,151,28,3,2,2,1,53,/,"mask4.avi (170x170)",1456,True
16,1,1,152,86,3,2,2,1,53,/,"mask3.avi (170x170)",2261,True
16,1,1,153,114,3,2,2,2,53,/,"mask1.avi (170x170)",769,True
16,1,1,154,174,3,2,2,2,53,/,"mask3.avi (170x170)",1867,True
16,1,1,155,40,3,2,2,3,53,/,"mask8.avi (170x170)",4257,True
16,1,1,156,101,3,2,2,3,53,/,"mask1.avi (170x170)",1932,True
16,1,1,157,154,3,2,3,1,53,/,"mask9.avi (170x170)",3195,True
16,1,1,158,20,3,2,3,1,53,/,"mask3.avi (170x170)",2553,True
16,1,1,159,76,3,2,3,2,53,/,"mask3.avi (170x170)",1496,True
16,1,1,160,13,3,2,3,2,53,/,"mask5.avi (170x170)",1615,True
16,1,1,161,143,3,2,3,3,53,/,"mask8.avi (170x170)",1882,True
16,1,1,162,141,3,2,3,3,53,/,"mask7.avi (170x170)",1827,True
16,1,1,163,177,3,2,4,1,53,/,"mask6.avi (170x170)",3435,True
16,1,1,164,121,3,2,4,1,53,/,"mask9.avi (170x170)",2040,True
16,1,1,165,185,3,2,4,2,53,/,"mask3.avi (170x170)",2140,True
16,1,1,166,156,3,2,4,2,53,/,"mask1.avi (170x170)",1103,True
16,1,1,167,63,3,2,4,3,53,/,"mask3.avi (170x170)",1292,True
16,1,1,168,68,3,2,4,3,53,/,"mask1.avi (170x170)",1977,True
16,1,1,169,96,4,2,1,1,44,Z,"mask2.avi (170x170)",2325,True
16,1,1,170,104,4,2,1,1,44,Z,"mask0.avi (170x170)",1645,True
16,1,1,171,152,4,2,1,2,44,Z,"mask7.avi (170x170)",3626,True
16,1,1,172,56,4,2,1,2,44,Z,"mask4.avi (170x170)",1458,True
16,1,1,173,142,4,2,1,3,44,Z,"mask2.avi (170x170)",2632,True
16,1,1,174,29,4,2,1,3,44,Z,"mask1.avi (170x170)",5823,True
16,1,1,175,178,4,2,2,1,44,Z,"mask0.avi (170x170)",1469,True
16,1,1,176,137,4,2,2,1,44,Z,"mask5.avi (170x170)",1615,True
16,1,1,177,173,4,2,2,2,53,/,"mask2.avi (170x170)",2593,False
16,1,1,178,194,4,2,2,2,44,Z,"mask7.avi (170x170)",1496,True
16,1,1,179,119,4,2,2,3,44,Z,"mask8.avi (170x170)",1658,True
16,1,1,180,27,4,2,2,3,44,Z,"mask9.avi (170x170)",1337,True
16,1,1,181,67,4,2,3,1,44,Z,"mask5.avi (170x170)",2789,True
16,1,1,182,50,4,2,3,1,44,Z,"mask8.avi (170x170)",1414,True
16,1,1,183,159,4,2,3,2,44,Z,"mask1.avi (170x170)",1780,True
16,1,1,184,83,4,2,3,2,44,Z,"mask5.avi (170x170)",2160,True
16,1,1,185,172,4,2,3,3,44,Z,"mask7.avi (170x170)",2669,True
16,1,1,186,88,4,2,3,3,44,Z,"mask1.avi (170x170)",1455,True
16,1,1,187,93,4,2,4,1,44,Z,"mask9.avi (170x170)",1187,True
16,1,1,188,52,4,2,4,1,44,Z,"mask5.avi (170x170)",1593,True
16,1,1,189,201,4,2,4,2,44,Z,"mask5.avi (170x170)",2954,True
16,1,1,190,95,4,2,4,2,44,Z,"mask1.avi (170x170)",1394,True
16,1,1,191,94,4,2,4,3,44,Z,"mask5.avi (170x170)",1528,True
16,1,1,192,161,4,2,4,3,44,Z,"mask0.avi (170x170)",1680,True
17,1,1,1,28,1,1,1,1,30,A,"mask8.avi (170x170)",1238,True
17,1,1,2,184,1,1,1,1,30,A,"mask1.avi (170x170)",1590,True
17,1,1,3,82,1,1,1,2,30,A,"mask1.avi (170x170)",1762,True
17,1,1,4,75,1,1,1,2,30,A,"mask8.avi (170x170)",1746,True
17,1,1,5,195,1,1,1,3,30,A,"mask2.avi (170x170)",1286,True
17,1,1,6,181,1,1,1,3,30,A,"mask4.avi (170x170)",1715,True
17,1,1,7,191,1,1,2,1,30,A,"mask4.avi (170x170)",1056,True
17,1,1,8,64,1,1,2,1,30,A,"mask9.avi (170x170)",1298,True
17,1,1,9,116,1,1,2,2,30,A,"mask4.avi (170x170)",1886,True
17,1,1,10,171,1,1,2,2,30,A,"mask2.avi (170x170)",2686,True
17,1,1,11,87,1,1,2,3,30,A,"mask3.avi (170x170)",1268,True
17,1,1,12,161,1,1,2,3,30,A,"mask0.avi (170x170)",2114,True
17,1,1,13,40,1,1,3,1,30,A,"mask4.avi (170x170)",2072,True
17,1,1,14,204,1,1,3,1,30,A,"mask6.avi (170x170)",2064,True
17,1,1,15,91,1,1,3,2,30,A,"mask4.avi (170x170)",2018,True
17,1,1,16,16,1,1,3,2,30,A,"mask4.avi (170x170)",1294,True
17,1,1,17,113,1,1,3,3,30,A,"mask7.avi (170x170)",3843,True
17,1,1,18,183,1,1,3,3,30,A,"mask7.avi (170x170)",5043,True
17,1,1,19,125,1,1,4,1,30,A,"mask2.avi (170x170)",1939,True
17,1,1,20,203,1,1,4,1,30,A,"mask2.avi (170x170)",3173,True
17,1,1,21,20,1,1,4,2,30,A,"mask2.avi (170x170)",1167,True
17,1,1,22,23,1,1,4,2,30,A,"mask7.avi (170x170)",1159,True
17,1,1,23,132,1,1,4,3,30,A,"mask7.avi (170x170)",1813,True
17,1,1,24,104,1,1,4,3,30,A,"mask1.avi (170x170)",3727,True
17,1,1,25,128,2,1,1,1,40,APOSTROPHE,"mask5.avi (170x170)",2130,True
17,1,1,26,156,2,1,1,1,40,APOSTROPHE,"mask2.avi (170x170)",1222,True
17,1,1,27,93,2,1,1,2,40,APOSTROPHE,"mask2.avi (170x170)",1395,True
17,1,1,28,202,2,1,1,2,40,APOSTROPHE,"mask8.avi (170x170)",1542,True
17,1,1,29,167,2,1,1,3,40,APOSTROPHE,"mask4.avi (170x170)",2903,True
17,1,1,30,196,2,1,1,3,40,APOSTROPHE,"mask2.avi (170x170)",2264,True
17,1,1,31,182,2,1,2,1,40,APOSTROPHE,"mask0.avi (170x170)",1391,True
17,1,1,32,45,2,1,2,1,40,APOSTROPHE,"mask2.avi (170x170)",1423,True
17,1,1,33,56,2,1,2,2,40,APOSTROPHE,"mask3.avi (170x170)",1157,True
17,1,1,34,164,2,1,2,2,40,APOSTROPHE,"mask2.avi (170x170)",1540,True
17,1,1,35,63,2,1,2,3,40,APOSTROPHE,"mask1.avi (170x170)",1840,True
17,1,1,36,50,2,1,2,3,40,APOSTROPHE,"mask6.avi (170x170)",2178,True
17,1,1,37,100,2,1,3,1,40,APOSTROPHE,"mask3.avi (170x170)",1810,True
17,1,1,38,145,2,1,3,1,40,APOSTROPHE,"mask4.avi (170x170)",1334,True
17,1,1,39,21,2,1,3,2,40,APOSTROPHE,"mask3.avi (170x170)",1502,True
17,1,1,40,13,2,1,3,2,40,APOSTROPHE,"mask8.avi (170x170)",1266,True
17,1,1,41,177,2,1,3,3,40,APOSTROPHE,"mask3.avi (170x170)",1295,True
17,1,1,42,123,2,1,3,3,40,APOSTROPHE,"mask4.avi (170x170)",2390,True
17,1,1,43,99,2,1,4,1,40,APOSTROPHE,"mask3.avi (170x170)",1249,True
17,1,1,44,38,2,1,4,1,40,APOSTROPHE,"mask4.avi (170x170)",1281,True
17,1,1,45,105,2,1,4,2,40,APOSTROPHE,"mask1.avi (170x170)",1174,True
17,1,1,46,84,2,1,4,2,40,APOSTROPHE,"mask2.avi (170x170)",2883,True
17,1,1,47,133,2,1,4,3,40,APOSTROPHE,"mask2.avi (170x170)",1734,True
17,1,1,48,32,2,1,4,3,40,APOSTROPHE,"mask0.avi (170x170)",2196,True
17,1,1,49,86,3,1,1,1,53,/,"mask5.avi (170x170)",1122,True
17,1,1,50,43,3,1,1,1,53,/,"mask3.avi (170x170)",1448,True
17,1,1,51,14,3,1,1,2,53,/,"mask6.avi (170x170)",1277,True
17,1,1,52,89,3,1,1,2,40,APOSTROPHE,"mask1.avi (170x170)",2134,False
17,1,1,53,68,3,1,1,3,53,/,"mask9.avi (170x170)",2110,True
17,1,1,54,97,3,1,1,3,44,Z,"mask0.avi (170x170)",2150,False
17,1,1,55,22,3,1,2,1,53,/,"mask5.avi (170x170)",1156,True
17,1,1,56,190,3,1,2,1,53,/,"mask3.avi (170x170)",1169,True
17,1,1,57,44,3,1,2,2,53,/,"mask0.avi (170x170)",1566,True
17,1,1,58,154,3,1,2,2,53,/,"mask6.avi (170x170)",1472,True
17,1,1,59,72,3,1,2,3,53,/,"mask7.avi (170x170)",2271,True
17,1,1,60,36,3,1,2,3,53,/,"mask9.avi (170x170)",3410,True
17,1,1,61,168,3,1,3,1,53,/,"mask6.avi (170x170)",1854,True
17,1,1,62,59,3,1,3,1,53,/,"mask6.avi (170x170)",1327,True
17,1,1,63,115,3,1,3,2,53,/,"mask6.avi (170x170)",1246,True
17,1,1,64,153,3,1,3,2,53,/,"mask6.avi (170x170)",1538,True
17,1,1,65,35,3,1,3,3,53,/,"mask5.avi (170x170)",1283,True
17,1,1,66,107,3,1,3,3,53,/,"mask7.avi (170x170)",5814,True
17,1,1,67,189,3,1,4,1,40,APOSTROPHE,"mask0.avi (170x170)",1668,False
17,1,1,68,95,3,1,4,1,53,/,"mask5.avi (170x170)",1920,True
17,1,1,69,131,3,1,4,2,53,/,"mask9.avi (170x170)",2272,True
17,1,1,70,150,3,1,4,2,53,/,"mask7.avi (170x170)",1765,True
17,1,1,71,117,3,1,4,3,40,APOSTROPHE,"mask6.avi (170x170)",1488,False
17,1,1,72,137,3,1,4,3,53,/,"mask6.avi (170x170)",1616,True
17,1,1,73,187,4,1,1,1,44,Z,"mask4.avi (170x170)",1586,True
17,1,1,74,141,4,1,1,1,44,Z,"mask0.avi (170x170)",4006,True
17,1,1,75,98,4,1,1,2,44,Z,"mask9.avi (170x170)",2845,True
17,1,1,76,134,4,1,1,2,44,Z,"mask2.avi (170x170)",2519,True
17,1,1,77,65,4,1,1,3,44,Z,"mask7.avi (170x170)",2719,True
17,1,1,78,94,4,1,1,3,44,Z,"mask3.avi (170x170)",2773,True
17,1,1,79,165,4,1,2,1,44,Z,"mask5.avi (170x170)",1458,True
17,1,1,80,73,4,1,2,1,44,Z,"mask4.avi (170x170)",1877,True
17,1,1,81,90,4,1,2,2,44,Z,"mask9.avi (170x170)",1023,True
17,1,1,82,108,4,1,2,2,44,Z,"mask3.avi (170x170)",1344,True
17,1,1,83,110,4,1,2,3,44,Z,"mask8.avi (170x170)",1059,True
17,1,1,84,200,4,1,2,3,44,Z,"mask9.avi (170x170)",2817,True
17,1,1,85,185,4,1,3,1,44,Z,"mask1.avi (170x170)",2578,True
17,1,1,86,78,4,1,3,1,44,Z,"mask7.avi (170x170)",2276,True
17,1,1,87,88,4,1,3,2,44,Z,"mask7.avi (170x170)",1006,True
17,1,1,88,109,4,1,3,2,44,Z,"mask1.avi (170x170)",1541,True
17,1,1,89,61,4,1,3,3,44,Z,"mask5.avi (170x170)",2133,True
17,1,1,90,148,4,1,3,3,44,Z,"mask4.avi (170x170)",1694,True
17,1,1,91,77,4,1,4,1,44,Z,"mask9.avi (170x170)",1123,True
17,1,1,92,129,4,1,4,1,44,Z,"mask5.avi (170x170)",1604,True
17,1,1,93,26,4,1,4,2,30,A,"mask2.avi (170x170)",1190,False
17,1,1,94,188,4,1,4,2,44,Z,"mask7.avi (170x170)",1950,True
17,1,1,95,147,4,1,4,3,44,Z,"mask8.avi (170x170)",2295,True
17,1,1,96,157,4,1,4,3,44,Z,"mask4.avi (170x170)",4612,True
