ID,Trial,TrialNumber,RT,IsCOrrect,FaceGabor,UpDown,MaskKind,MaskSide,ScreenLocation,Block
6,1,19,10.00062034,-1,1,1,2,1,6,1
6,2,96,10.01198601,-1,1,0,0,1,6.5,1
6,3,94,8.773696341,0,1,0,2,1,6.5,1
6,4,41,4.526348487,1,1,1,2,1,6,1
6,5,52,10.01602049,-1,1,0,2,1,6.5,1
6,6,71,10.00368522,-1,1,1,0,1,6.5,1
6,7,90,6.953127288,1,1,0,2,1,6.5,1
6,8,29,6.908481463,1,1,1,2,1,6,1
6,9,76,8.694800155,0,1,0,0,1,6.5,1
6,10,55,10.01063364,-1,1,1,2,1,6.5,1
6,11,60,10.01389262,-1,1,0,2,1,6.5,1
6,12,48,8.596084457,1,1,0,0,1,6,1
6,13,97,8.454042404,1,1,1,0,1,7,1
6,14,3,5.365910233,1,1,1,2,1,6,1
6,15,106,6.09868853,0,1,0,0,1,7,1
6,16,33,2.630049854,1,1,1,2,1,6,1
6,17,20,5.183903438,1,1,0,2,1,6,1
6,18,125,10.00688956,-1,1,1,2,1,7,1
6,19,118,9.612440022,1,1,0,0,1,7,1
6,20,32,10.00542036,-1,1,0,0,1,6,1
6,21,123,6.117686355,1,1,1,0,1,7,1
6,22,28,4.679819301,1,1,0,0,1,6,1
6,23,102,10.00407765,-1,1,0,0,1,7,1
6,24,88,3.871159283,0,1,0,0,1,6.5,1
6,25,66,7.504783266,0,1,0,0,1,6.5,1
6,26,109,4.59484619,1,1,1,0,1,7,1
6,27,108,7.140881065,0,1,0,2,1,7,1
6,28,80,10.00691522,-1,1,0,0,1,6.5,1
6,29,143,10.01665532,-1,1,1,0,1,7,1
6,30,86,2.391469181,1,1,0,2,1,6.5,1
6,31,124,5.178761099,1,1,0,0,1,7,1
6,32,10,4.495220659,0,1,0,0,1,6,1
6,33,51,7.026134311,0,1,1,2,1,6.5,1
6,34,122,10.01468502,-1,1,0,2,1,7,1
6,35,37,2.902031729,1,1,1,2,1,6,1
6,36,38,1.866423561,1,1,0,2,1,6,1
6,37,5,5.261010144,1,1,1,0,1,6,1
6,38,84,7.104159,0,1,0,0,1,6.5,1
6,39,120,5.497463546,1,1,0,0,1,7,1
6,40,56,7.098444016,0,1,0,2,1,6.5,1
6,41,132,10.00908897,-1,1,0,0,1,7,1
6,42,115,6.979287257,1,1,1,2,1,7,1
6,43,43,2.531665004,1,1,1,0,1,6,1
6,44,64,2.82935314,1,1,0,2,1,6.5,1
6,45,136,9.252362502,1,1,0,0,1,7,1
6,46,65,2.682607967,1,1,1,0,1,6.5,1
6,47,12,2.200804481,1,1,0,2,1,6,1
6,48,2,2.377723877,1,1,0,0,1,6,1
6,49,101,4.62772516,0,1,1,0,1,7,1
6,50,142,4.4849713,1,1,0,2,1,7,1
6,51,130,3.832337417,0,1,0,2,1,7,1
6,52,133,8.091157502,0,1,1,2,1,7,1
6,53,73,4.370606108,1,1,1,2,1,6.5,1
6,54,138,10.01053553,-1,1,0,2,1,7,1
6,55,21,1.77353786,1,1,1,0,1,6,1
6,56,107,2.418236209,1,1,1,2,1,7,1
6,57,16,3.843531928,1,1,0,2,1,6,1
6,58,17,4.240457694,0,1,1,0,1,6,1
6,59,95,4.417374675,0,1,1,0,1,6.5,1
6,60,113,4.983252005,1,1,1,0,1,7,1
6,61,58,1.173909159,1,1,0,0,1,6.5,1
6,62,116,4.724815596,1,1,0,2,1,7,1
6,63,70,4.969497343,0,1,0,0,1,6.5,1
6,64,141,8.11026732,0,1,1,2,1,7,1
6,65,18,6.278268298,0,1,0,0,1,6,1
6,66,79,7.022545994,0,1,1,0,1,6.5,1
6,67,36,7.345203226,1,1,0,0,1,6,1
6,68,100,3.449723865,1,1,0,2,1,7,1
6,69,93,5.100677847,0,1,1,2,1,6.5,1
6,70,87,5.754076364,0,1,1,0,1,6.5,1
6,71,137,3.008377469,1,1,1,2,1,7,1
6,72,117,7.481149638,0,1,1,0,1,7,1
6,73,140,4.829387251,0,1,0,0,1,7,1
6,74,39,7.103237092,1,1,1,0,1,6,1
6,75,27,8.291788106,1,1,1,0,1,6,1
6,76,121,6.606534257,1,1,1,2,1,7,1
6,77,6,5.213597086,1,1,0,0,1,6,1
6,78,46,4.022260124,1,1,0,2,1,6,1
6,79,15,2.495304276,0,1,1,2,1,6,1
6,80,57,3.71757889,0,1,1,0,1,6.5,1
6,81,54,5.866064035,0,1,0,0,1,6.5,1
6,82,91,4.076553078,0,1,1,0,1,6.5,1
6,83,127,5.273354172,0,1,1,0,1,7,1
6,84,72,10.0030036,-1,1,0,0,1,6.5,1
6,85,114,6.76798679,0,1,0,0,1,7,1
6,86,119,3.726487648,1,1,1,0,1,7,1
6,87,75,9.129615917,1,1,1,0,1,6.5,1
6,88,40,9.451004696,1,1,0,0,1,6,1
6,89,30,5.790524331,1,1,0,2,1,6,1
6,90,144,7.13310673,0,1,0,0,1,7,1
6,91,131,5.692938227,1,1,1,0,1,7,1
6,92,103,3.645493473,1,1,1,2,1,7,1
6,93,99,1.893301074,1,1,1,2,1,7,1
6,94,77,4.385646128,1,1,1,2,1,6.5,1
6,95,25,3.608394978,1,1,1,2,1,6,1
6,96,22,4.239334137,1,1,0,0,1,6,1
6,97,45,1.346821847,1,1,1,2,1,6,1
6,98,31,2.652697577,1,1,1,0,1,6,1
6,99,139,7.75375759,0,1,1,0,1,7,1
6,100,98,7.98784132,0,1,0,0,1,7,1
6,101,8,4.023941232,1,1,0,2,1,6,1
6,102,135,2.699898421,1,1,1,0,1,7,1
6,103,62,5.146542619,0,1,0,0,1,6.5,1
6,104,34,2.398370511,1,1,0,2,1,6,1
6,105,82,4.285006015,1,1,0,2,1,6.5,1
6,106,104,3.840670511,1,1,0,2,1,7,1
6,107,92,6.930039137,1,1,0,0,1,6.5,1
6,108,112,6.623412659,1,1,0,2,1,7,1
6,109,4,4.675637208,1,1,0,2,1,6,1
6,110,53,6.407478805,1,1,1,0,1,6.5,1
6,111,105,4.27183396,1,1,1,0,1,7,1
6,112,68,2.093120858,1,1,0,2,1,6.5,1
6,113,78,10.00961906,-1,1,0,2,1,6.5,1
6,114,7,4.78705314,1,1,1,2,1,6,1
6,115,129,1.945925296,1,1,1,2,1,7,1
6,116,13,3.170239941,1,1,1,0,1,6,1
6,117,110,8.866659925,0,1,0,0,1,7,1
6,118,9,2.40851331,1,1,1,0,1,6,1
6,119,63,4.599519726,1,1,1,2,1,6.5,1
6,120,49,6.669815362,0,1,1,0,1,6.5,1
6,121,85,4.349750279,1,1,1,2,1,6.5,1
6,122,81,10.01306187,-1,1,1,2,1,6.5,1
6,123,14,2.458229629,1,1,0,0,1,6,1
6,124,128,5.051177667,1,1,0,0,1,7,1
6,125,74,3.643570567,1,1,0,2,1,6.5,1
6,126,50,2.868137876,0,1,0,0,1,6.5,1
6,127,44,2.561634259,1,1,0,0,1,6,1
6,128,35,2.34863759,1,1,1,0,1,6,1
6,129,42,3.508700922,1,1,0,2,1,6,1
6,130,59,5.672059154,0,1,1,2,1,6.5,1
6,131,126,10.0104818,-1,1,0,2,1,7,1
6,132,23,1.797009987,1,1,1,0,1,6,1
6,133,69,2.447896652,1,1,1,0,1,6.5,1
6,134,67,5.080525977,1,1,1,2,1,6.5,1
6,135,26,10.00140852,-1,1,0,2,1,6,1
6,136,61,1.307011965,0,1,1,0,1,6.5,1
6,137,134,3.624149522,0,1,0,2,1,7,1
6,138,11,2.032014719,1,1,1,2,1,6,1
6,139,83,2.766955908,0,1,1,0,1,6.5,1
6,140,111,2.581905971,1,1,1,2,1,7,1
6,141,1,1.602362729,1,1,1,0,1,6,1
6,142,89,1.496666008,1,1,1,2,1,6.5,1
6,143,47,1.983791143,1,1,1,0,1,6,1
6,144,24,2.558531649,1,1,0,0,1,6,1
6,1,84,6.914409265,1,1,0,2,1,7,2
6,2,9,3.982732186,1,1,1,2,1,6.5,2
6,3,42,2.689953346,1,1,0,0,1,6.5,2
6,4,66,2.541313643,1,1,0,2,1,7,2
6,5,71,2.422500713,1,1,1,2,1,7,2
6,6,41,10.01310927,-1,1,1,0,1,6.5,2
6,7,2,2.18862316,1,1,0,2,1,6.5,2
6,8,36,2.313311669,1,1,0,2,1,6.5,2
6,9,32,2.19044977,1,1,0,2,1,6.5,2
6,10,57,3.416871158,0,1,1,2,1,7,2
6,11,107,6.930121246,0,1,1,0,1,6,2
6,12,39,2.449134013,1,1,1,2,1,6.5,2
6,13,124,2.340300873,1,1,0,2,1,6,2
6,14,101,2.378074951,1,1,1,2,1,6,2
6,15,81,3.381064662,1,1,1,0,1,7,2
6,16,67,10.0050883,-1,1,1,0,1,7,2
6,17,135,9.655376363,1,1,1,2,1,6,2
6,18,96,2.240454977,1,1,0,2,1,7,2
6,19,15,4.123807051,1,1,1,0,1,6.5,2
6,20,62,2.20627314,1,1,0,2,1,7,2
6,21,59,6.727029201,1,1,1,0,1,7,2
6,22,23,7.113753304,1,1,1,2,1,6.5,2
6,23,53,2.347229069,0,1,1,2,1,7,2
6,24,13,2.270789493,1,1,1,2,1,6.5,2
6,25,116,4.521564466,1,1,0,0,1,6,2
6,26,37,6.335086085,1,1,1,0,1,6.5,2
6,27,8,6.801113293,0,1,0,0,1,6.5,2
6,28,48,4.004307973,1,1,0,2,1,6.5,2
6,29,143,3.366483181,1,1,1,2,1,6,2
6,30,16,3.401519609,1,1,0,0,1,6.5,2
6,31,27,2.268919716,1,1,1,2,1,6.5,2
6,32,75,2.336238018,1,1,1,2,1,7,2
6,33,95,2.228275769,1,1,1,2,1,7,2
6,34,144,2.549501841,1,1,0,2,1,6,2
6,35,104,4.104057271,0,1,0,0,1,6,2
6,36,137,10.0050237,-1,1,1,0,1,6,2
6,37,44,5.297778697,0,1,0,2,1,6.5,2
6,38,70,2.438201223,1,1,0,2,1,7,2
6,39,141,5.916266061,1,1,1,0,1,6,2
6,40,139,2.210950601,1,1,1,2,1,6,2
6,41,125,10.0106276,-1,1,1,0,1,6,2
6,42,72,2.905153357,1,1,0,2,1,7,2
6,43,19,3.602830928,1,1,1,0,1,6.5,2
6,44,45,2.921324481,1,1,1,0,1,6.5,2
6,45,97,2.216974397,0,1,1,2,1,6,2
6,46,46,2.94157476,0,1,0,0,1,6.5,2
6,47,79,2.295234243,1,1,1,2,1,7,2
6,48,142,6.723864708,0,1,0,0,1,6,2
6,49,26,10.00935703,-1,1,0,0,1,6.5,2
6,50,126,10.00960577,-1,1,0,0,1,6,2
6,51,106,2.453541301,1,1,0,2,1,6,2
6,52,138,4.567844006,0,1,0,0,1,6,2
6,53,38,10.00921153,-1,1,0,0,1,6.5,2
6,54,69,2.562193622,1,1,1,2,1,7,2
6,55,131,2.716102146,1,1,1,2,1,6,2
6,56,68,9.733927512,0,1,0,0,1,7,2
6,57,74,9.293186665,1,1,0,0,1,7,2
6,58,14,2.496418777,1,1,0,2,1,6.5,2
6,59,132,2.402891301,1,1,0,2,1,6,2
6,60,54,2.300221421,1,1,0,2,1,7,2
6,61,34,4.11815878,1,1,0,0,1,6.5,2
6,62,33,3.485757065,0,1,1,0,1,6.5,2
6,63,3,3.272467583,1,1,1,0,1,6.5,2
6,64,1,2.01359286,1,1,1,2,1,6.5,2
6,65,123,2.329599314,1,1,1,2,1,6,2
6,66,112,3.650296209,1,1,0,0,1,6,2
6,67,80,2.994244565,1,1,0,2,1,7,2
6,68,121,10.00134211,-1,1,1,0,1,6,2
6,69,12,3.9608334,1,1,0,0,1,6.5,2
6,70,7,10.01620614,-1,1,1,0,1,6.5,2
6,71,130,10.00834426,-1,1,0,0,1,6,2
6,72,120,2.459063693,1,1,0,2,1,6,2
6,73,113,2.088309669,1,1,1,2,1,6,2
6,74,35,2.243857946,1,1,1,2,1,6.5,2
6,75,89,4.081488939,1,1,1,0,1,7,2
6,76,40,2.211601128,1,1,0,2,1,6.5,2
6,77,85,4.347754925,1,1,1,0,1,7,2
6,78,102,2.516672377,1,1,0,2,1,6,2
6,79,25,2.891880478,1,1,1,0,1,6.5,2
6,80,128,2.295657765,1,1,0,2,1,6,2
6,81,10,2.144768534,1,1,0,2,1,6.5,2
6,82,114,2.031857445,1,1,0,2,1,6,2
6,83,98,2.110684503,1,1,0,2,1,6,2
6,84,117,2.380436774,1,1,1,2,1,6,2
6,85,91,2.493477365,1,1,1,2,1,7,2
6,86,30,2.883346943,1,1,0,0,1,6.5,2
6,87,136,2.043019958,1,1,0,2,1,6,2
6,88,64,5.050158557,1,1,0,0,1,7,2
6,89,50,6.402487401,1,1,0,2,1,7,2
6,90,78,7.933840574,1,1,0,0,1,7,2
6,91,118,2.334378505,1,1,0,2,1,6,2
6,92,133,5.324665567,1,1,1,0,1,6,2
6,93,82,3.566524235,1,1,0,0,1,7,2
6,94,60,9.138415097,1,1,0,0,1,7,2
6,95,77,3.619065142,1,1,1,0,1,7,2
6,96,134,3.468796856,1,1,0,0,1,6,2
6,97,88,2.305311536,0,1,0,2,1,7,2
6,98,73,4.046329952,1,1,1,0,1,7,2
6,99,65,6.038991214,1,1,1,2,1,7,2
6,100,140,2.310760574,1,1,0,2,1,6,2
6,101,61,2.178967276,1,1,1,2,1,7,2
6,102,115,4.775175197,1,1,1,0,1,6,2
6,103,47,2.201468291,1,1,1,2,1,6.5,2
6,104,6,2.248626571,1,1,0,2,1,6.5,2
6,105,119,2.102290431,1,1,1,2,1,6,2
6,106,76,2.203948447,1,1,0,2,1,7,2
6,107,29,3.69676653,1,1,1,0,1,6.5,2
6,108,109,2.408393468,1,1,1,2,1,6,2
6,109,83,2.098365228,1,1,1,2,1,7,2
6,110,51,2.637853772,1,1,1,0,1,7,2
6,111,105,2.027062558,1,1,1,2,1,6,2
6,112,28,1.995950125,1,1,0,2,1,6.5,2
6,113,94,8.253547338,1,1,0,0,1,7,2
6,114,93,3.338285897,1,1,1,0,1,7,2
6,115,17,2.103356633,1,1,1,2,1,6.5,2
6,116,63,3.802919375,1,1,1,0,1,7,2
6,117,43,7.13958333,1,1,1,2,1,6.5,2
6,118,18,2.296261201,1,1,0,2,1,6.5,2
6,119,24,2.229966538,1,1,0,2,1,6.5,2
6,120,92,2.362327048,1,1,0,2,1,7,2
6,121,5,2.072657459,1,1,1,2,1,6.5,2
6,122,99,10.01437289,-1,1,1,0,1,6,2
6,123,110,2.458852385,1,1,0,2,1,6,2
6,124,20,9.103551036,1,1,0,0,1,6.5,2
6,125,111,6.139128112,1,1,1,0,1,6,2
6,126,22,2.233152463,1,1,0,2,1,6.5,2
6,127,100,6.120899147,1,1,0,0,1,6,2
6,128,11,2.782356661,1,1,1,0,1,6.5,2
6,129,108,7.226194081,1,1,0,0,1,6,2
6,130,129,4.734797499,1,1,1,0,1,6,2
6,131,21,2.01649201,1,1,1,2,1,6.5,2
6,132,49,2.087544129,1,1,1,2,1,7,2
6,133,90,5.200094787,1,1,0,0,1,7,2
6,134,55,2.699373169,1,1,1,0,1,7,2
6,135,56,4.032666454,1,1,0,0,1,7,2
6,136,52,4.134257153,1,1,0,0,1,7,2
6,137,58,2.466562723,1,1,0,2,1,7,2
6,138,122,10.0074459,-1,1,0,0,1,6,2
6,139,87,3.511542113,1,1,1,2,1,7,2
6,140,4,5.182995114,1,1,0,0,1,6.5,2
6,141,31,2.175474953,1,1,1,2,1,6.5,2
6,142,103,5.446997384,1,1,1,0,1,6,2
6,143,127,2.326329469,1,1,1,2,1,6,2
6,144,86,4.221568542,1,1,0,0,1,7,2
7,1,32,10.00332238,-1,1,0,2,1,6.5,1
7,2,2,3.419192588,0,1,0,2,1,6.5,1
7,3,95,5.590530038,1,1,1,2,1,7,1
7,4,50,6.725895158,0,1,0,2,1,7,1
7,5,46,9.52887884,0,1,0,0,1,6.5,1
7,6,80,7.56544193,1,1,0,2,1,7,1
7,7,20,1.786388081,1,1,0,0,1,6.5,1
7,8,67,4.268753292,1,1,1,0,1,7,1
7,9,3,2.294690863,0,1,1,0,1,6.5,1
7,10,76,2.081609933,0,1,0,2,1,7,1
7,11,64,6.383105849,0,1,0,0,1,7,1
7,12,109,3.517810175,1,1,1,2,1,6,1
7,13,121,3.942378463,0,1,1,0,1,6,1
7,14,37,6.169987186,1,1,1,0,1,6.5,1
7,15,15,5.13345549,1,1,1,0,1,6.5,1
7,16,63,2.739421044,1,1,1,0,1,7,1
7,17,26,5.149755259,0,1,0,0,1,6.5,1
7,18,113,1.829972062,0,1,1,2,1,6,1
7,19,39,3.498664075,1,1,1,2,1,6.5,1
7,20,6,6.099285927,0,1,0,2,1,6.5,1
7,21,48,7.790308164,0,1,0,2,1,6.5,1
7,22,7,2.260543939,1,1,1,0,1,6.5,1
7,23,102,4.414253393,1,1,0,2,1,6,1
7,24,52,2.006159052,1,1,0,0,1,7,1
7,25,92,2.120020769,1,1,0,2,1,7,1
7,26,140,1.887889129,1,1,0,2,1,6,1
7,27,73,2.95536853,1,1,1,0,1,7,1
7,28,11,1.95492297,1,1,1,0,1,6.5,1
7,29,59,2.017607771,1,1,1,0,1,7,1
7,30,127,1.727436204,1,1,1,2,1,6,1
7,31,78,1.641623336,1,1,0,0,1,7,1
7,32,43,2.739322332,0,1,1,2,1,6.5,1
7,33,131,2.589093741,1,1,1,2,1,6,1
7,34,61,1.797740202,1,1,1,2,1,7,1
7,35,36,9.04008712,1,1,0,2,1,6.5,1
7,36,82,2.012603372,0,1,0,0,1,7,1
7,37,25,2.421107953,1,1,1,0,1,6.5,1
7,38,18,4.250509481,1,1,0,2,1,6.5,1
7,39,40,5.530015682,1,1,0,2,1,6.5,1
7,40,29,3.015022557,1,1,1,0,1,6.5,1
7,41,144,4.682025004,1,1,0,2,1,6,1
7,42,136,9.411907561,0,1,0,2,1,6,1
7,43,94,1.87062881,0,1,0,0,1,7,1
7,44,49,3.713326199,1,1,1,2,1,7,1
7,45,122,1.802190368,0,1,0,0,1,6,1
7,46,85,2.518809968,1,1,1,0,1,7,1
7,47,90,2.469708107,1,1,0,0,1,7,1
7,48,104,1.716403159,0,1,0,0,1,6,1
7,49,129,4.509091568,0,1,1,0,1,6,1
7,50,74,3.699271437,0,1,0,0,1,7,1
7,51,60,9.099397619,0,1,0,0,1,7,1
7,52,79,3.765070328,1,1,1,2,1,7,1
7,53,62,3.874095183,1,1,0,2,1,7,1
7,54,134,6.386590334,0,1,0,0,1,6,1
7,55,124,8.290782854,1,1,0,2,1,6,1
7,56,71,1.936266503,1,1,1,2,1,7,1
7,57,133,1.851378263,0,1,1,0,1,6,1
7,58,5,2.130067,1,1,1,2,1,6.5,1
7,59,77,2.861704629,1,1,1,0,1,7,1
7,60,88,8.379131732,0,1,0,2,1,7,1
7,61,93,1.922899702,0,1,1,0,1,7,1
7,62,111,2.969581171,0,1,1,0,1,6,1
7,63,98,4.689985012,1,1,0,2,1,6,1
7,64,53,7.681072906,1,1,1,2,1,7,1
7,65,47,4.906481298,1,1,1,2,1,6.5,1
7,66,35,3.630798884,0,1,1,2,1,6.5,1
7,67,143,2.89877637,0,1,1,2,1,6,1
7,68,66,3.902177841,0,1,0,2,1,7,1
7,69,75,5.218466591,0,1,1,2,1,7,1
7,70,128,1.848280473,1,1,0,2,1,6,1
7,71,68,4.753988985,1,1,0,0,1,7,1
7,72,106,2.200635738,1,1,0,2,1,6,1
7,73,120,1.805513051,1,1,0,2,1,6,1
7,74,24,1.952146371,0,1,0,2,1,6.5,1
7,75,89,2.286182658,1,1,1,0,1,7,1
7,76,54,1.802590648,1,1,0,2,1,7,1
7,77,139,3.420064691,1,1,1,2,1,6,1
7,78,58,3.860438285,1,1,0,2,1,7,1
7,79,112,1.851571459,1,1,0,0,1,6,1
7,80,86,1.940772213,1,1,0,0,1,7,1
7,81,22,2.549640548,1,1,0,2,1,6.5,1
7,82,116,1.633781057,1,1,0,0,1,6,1
7,83,132,1.733032872,1,1,0,2,1,6,1
7,84,107,1.879399943,1,1,1,0,1,6,1
7,85,9,1.944678109,1,1,1,2,1,6.5,1
7,86,110,2.559254804,1,1,0,2,1,6,1
7,87,83,5.856037927,1,1,1,2,1,7,1
7,88,44,1.773167385,1,1,0,2,1,6.5,1
7,89,108,1.451332077,1,1,0,0,1,6,1
7,90,51,1.790845492,1,1,1,0,1,7,1
7,91,23,1.635770983,1,1,1,2,1,6.5,1
7,92,105,2.267652071,1,1,1,2,1,6,1
7,93,103,2.202763015,0,1,1,0,1,6,1
7,94,91,2.046758445,1,1,1,2,1,7,1
7,95,13,2.167935979,0,1,1,2,1,6.5,1
7,96,65,0.997043486,1,1,1,2,1,7,1
7,97,119,1.435406626,1,1,1,2,1,6,1
7,98,55,1.557848392,1,1,1,0,1,7,1
7,99,27,1.549329924,0,1,1,2,1,6.5,1
7,100,57,3.959080927,1,1,1,2,1,7,1
7,101,10,1.664745365,1,1,0,2,1,6.5,1
7,102,19,1.683371646,0,1,1,0,1,6.5,1
7,103,99,1.724818991,1,1,1,0,1,6,1
7,104,16,1.681745472,1,1,0,0,1,6.5,1
7,105,135,1.902352321,0,1,1,2,1,6,1
7,106,123,3.11202997,0,1,1,2,1,6,1
7,107,45,1.845641225,1,1,1,0,1,6.5,1
7,108,118,2.352995833,1,1,0,2,1,6,1
7,109,12,1.795875551,0,1,0,0,1,6.5,1
7,110,69,1.489308824,1,1,1,2,1,7,1
7,111,4,1.344825119,1,1,0,0,1,6.5,1
7,112,8,1.687306218,0,1,0,0,1,6.5,1
7,113,137,3.432568143,0,1,1,0,1,6,1
7,114,81,1.821047277,0,1,1,0,1,7,1
7,115,142,1.375456767,0,1,0,0,1,6,1
7,116,114,1.731033588,1,1,0,2,1,6,1
7,117,72,2.066317504,1,1,0,2,1,7,1
7,118,56,2.068979695,1,1,0,0,1,7,1
7,119,96,1.592078631,1,1,0,2,1,7,1
7,120,14,1.380344947,0,1,0,2,1,6.5,1
7,121,100,1.768697597,1,1,0,0,1,6,1
7,122,41,1.746566607,1,1,1,0,1,6.5,1
7,123,115,3.087610805,1,1,1,0,1,6,1
7,124,125,2.07100494,1,1,1,0,1,6,1
7,125,34,1.736940277,1,1,0,0,1,6.5,1
7,126,87,1.680462525,1,1,1,2,1,7,1
7,127,117,1.783657969,1,1,1,2,1,6,1
7,128,30,1.781039851,1,1,0,0,1,6.5,1
7,129,28,2.43211081,1,1,0,2,1,6.5,1
7,130,42,2.649292643,1,1,0,0,1,6.5,1
7,131,138,1.78932286,1,1,0,0,1,6,1
7,132,130,1.826476106,1,1,0,0,1,6,1
7,133,1,1.54301722,1,1,1,2,1,6.5,1
7,134,21,1.535231995,1,1,1,2,1,6.5,1
7,135,141,1.846866816,1,1,1,0,1,6,1
7,136,84,3.089161209,1,1,0,2,1,7,1
7,137,31,3.029551255,0,1,1,2,1,6.5,1
7,138,38,1.809560523,1,1,0,0,1,6.5,1
7,139,70,1.848384015,1,1,0,2,1,7,1
7,140,126,2.535045741,1,1,0,0,1,6,1
7,141,17,2.595399804,1,1,1,2,1,6.5,1
7,142,97,2.401752657,1,1,1,2,1,6,1
7,143,101,1.424527536,1,1,1,2,1,6,1
7,144,33,2.08164344,0,1,1,0,1,6.5,1
7,1,54,2.284321932,0,1,0,0,1,6.5,2
7,2,40,10.01623396,-1,1,0,0,1,6,2
7,3,96,2.55225112,0,1,0,0,1,6.5,2
7,4,27,1.464430817,0,1,1,0,1,6,2
7,5,70,0.506345759,0,1,0,0,1,6.5,2
7,6,33,2.795023976,1,1,1,2,1,6,2
7,7,111,2.731534692,1,1,1,2,1,7,2
7,8,133,2.411311368,1,1,1,2,1,7,2
7,9,117,5.948475632,1,1,1,0,1,7,2
7,10,118,3.720036768,1,1,0,0,1,7,2
7,11,59,2.481278178,1,1,1,2,1,6.5,2
7,12,89,2.299112653,1,1,1,2,1,6.5,2
7,13,80,4.369882739,1,1,0,0,1,6.5,2
7,14,8,2.356769811,1,1,0,2,1,6,2
7,15,57,2.64655589,1,1,1,0,1,6.5,2
7,16,7,2.225221233,1,1,1,2,1,6,2
7,17,128,6.135040307,1,1,0,0,1,7,2
7,18,22,2.810211656,1,1,0,0,1,6,2
7,19,43,2.597014204,1,1,1,0,1,6,2
7,20,122,4.105562104,1,1,0,2,1,7,2
7,21,143,3.211536865,1,1,1,0,1,7,2
7,22,5,2.770620509,1,1,1,0,1,6,2
7,23,14,5.317879001,1,1,0,0,1,6,2
7,24,106,4.506330665,1,1,0,0,1,7,2
7,25,63,2.318102385,1,1,1,2,1,6.5,2
7,26,28,2.996007468,1,1,0,0,1,6,2
7,27,94,2.301942986,1,1,0,2,1,6.5,2
7,28,142,2.271011279,1,1,0,2,1,7,2
7,29,121,2.270463989,1,1,1,2,1,7,2
7,30,102,3.422121029,1,1,0,0,1,7,2
7,31,136,5.773438163,1,1,0,0,1,7,2
7,32,77,2.894615395,1,1,1,2,1,6.5,2
7,33,20,2.466862077,1,1,0,2,1,6,2
7,34,140,3.6384211,1,1,0,0,1,7,2
7,35,109,2.720178948,1,1,1,0,1,7,2
7,36,84,3.079401754,1,1,0,0,1,6.5,2
7,37,99,2.318796686,1,1,1,2,1,7,2
7,38,53,2.950716111,1,1,1,0,1,6.5,2
7,39,32,4.266284902,0,1,0,0,1,6,2
7,40,55,3.823714298,1,1,1,2,1,6.5,2
7,41,85,2.540778553,1,1,1,2,1,6.5,2
7,42,74,2.305302194,1,1,0,2,1,6.5,2
7,43,124,4.275088033,1,1,0,0,1,7,2
7,44,60,2.514464551,1,1,0,2,1,6.5,2
7,45,115,2.337171811,1,1,1,2,1,7,2
7,46,15,2.509982688,1,1,1,2,1,6,2
7,47,46,2.451851595,1,1,0,2,1,6,2
7,48,125,2.324402713,1,1,1,2,1,7,2
7,49,65,5.024041525,1,1,1,0,1,6.5,2
7,50,83,2.679498956,1,1,1,0,1,6.5,2
7,51,98,8.550437485,1,1,0,0,1,7,2
7,52,16,2.398032412,1,1,0,2,1,6,2
7,53,69,3.406996741,1,1,1,0,1,6.5,2
7,54,48,5.310008045,1,1,0,0,1,6,2
7,55,81,2.160426965,1,1,1,2,1,6.5,2
7,56,71,2.779003135,1,1,1,0,1,6.5,2
7,57,110,8.090750252,0,1,0,0,1,7,2
7,58,141,2.514191056,1,1,1,2,1,7,2
7,59,138,3.426484257,1,1,0,2,1,7,2
7,60,135,2.715874283,1,1,1,0,1,7,2
7,61,9,2.538372046,1,1,1,0,1,6,2
7,62,49,2.641063065,1,1,1,0,1,6.5,2
7,63,30,2.385853771,1,1,0,2,1,6,2
7,64,58,5.329469298,1,1,0,0,1,6.5,2
7,65,6,5.665817305,1,1,0,0,1,6,2
7,66,86,2.388688934,1,1,0,2,1,6.5,2
7,67,132,5.036011272,1,1,0,0,1,7,2
7,68,88,2.883094529,1,1,0,0,1,6.5,2
7,69,1,2.576794051,1,1,1,0,1,6,2
7,70,61,2.538856849,1,1,1,0,1,6.5,2
7,71,2,4.958018948,1,1,0,0,1,6,2
7,72,68,2.389964032,1,1,0,2,1,6.5,2
7,73,24,3.118724539,1,1,0,0,1,6,2
7,74,42,2.411170999,1,1,0,2,1,6,2
7,75,137,2.323622077,1,1,1,2,1,7,2
7,76,120,4.149596475,1,1,0,0,1,7,2
7,77,41,3.193001447,1,1,1,2,1,6,2
7,78,11,2.334912012,1,1,1,2,1,6,2
7,79,101,3.055864654,1,1,1,0,1,7,2
7,80,67,3.082902238,1,1,1,2,1,6.5,2
7,81,97,3.277093053,1,1,1,0,1,7,2
7,82,126,2.346659281,1,1,0,2,1,7,2
7,83,72,4.269222096,1,1,0,0,1,6.5,2
7,84,29,2.320121895,1,1,1,2,1,6,2
7,85,92,9.39086451,0,1,0,0,1,6.5,2
7,86,100,3.26507863,1,1,0,2,1,7,2
7,87,66,8.435133736,0,1,0,0,1,6.5,2
7,88,91,3.971236323,1,1,1,0,1,6.5,2
7,89,108,4.132724663,1,1,0,2,1,7,2
7,90,123,3.407896314,1,1,1,0,1,7,2
7,91,36,5.08635563,1,1,0,0,1,6,2
7,92,13,4.102943987,1,1,1,0,1,6,2
7,93,107,2.383561975,1,1,1,2,1,7,2
7,94,23,3.655594782,1,1,1,0,1,6,2
7,95,10,5.046428501,1,1,0,0,1,6,2
7,96,103,3.638616107,1,1,1,2,1,7,2
7,97,130,2.906324628,1,1,0,2,1,7,2
7,98,131,4.704280365,1,1,1,0,1,7,2
7,99,79,2.748293303,1,1,1,0,1,6.5,2
7,100,39,2.719446612,1,1,1,0,1,6,2
7,101,127,2.786248013,1,1,1,0,1,7,2
7,102,144,3.666187096,1,1,0,0,1,7,2
7,103,18,7.803927026,0,1,0,0,1,6,2
7,104,45,2.495524024,1,1,1,2,1,6,2
7,105,73,2.472185855,1,1,1,2,1,6.5,2
7,106,35,2.970981847,1,1,1,0,1,6,2
7,107,31,5.249503952,1,1,1,0,1,6,2
7,108,75,2.640009539,1,1,1,0,1,6.5,2
7,109,82,2.308584426,1,1,0,2,1,6.5,2
7,110,26,2.530122544,1,1,0,2,1,6,2
7,111,44,6.048059203,0,1,0,0,1,6,2
7,112,114,1.39316808,0,1,0,0,1,7,2
7,113,19,2.315479739,1,1,1,2,1,6,2
7,114,37,4.722246456,1,1,1,2,1,6,2
7,115,116,3.171474499,1,1,0,2,1,7,2
7,116,56,2.477097581,1,1,0,2,1,6.5,2
7,117,112,5.114265015,1,1,0,2,1,7,2
7,118,129,2.475023735,1,1,1,2,1,7,2
7,119,47,2.87084676,1,1,1,0,1,6,2
7,120,105,4.773415522,1,1,1,0,1,7,2
7,121,52,4.775707923,1,1,0,2,1,6.5,2
7,122,38,3.599860234,1,1,0,2,1,6,2
7,123,78,4.005554105,1,1,0,2,1,6.5,2
7,124,12,2.829805732,1,1,0,2,1,6,2
7,125,4,2.617149533,1,1,0,2,1,6,2
7,126,50,5.623081881,0,1,0,0,1,6.5,2
7,127,104,2.444453366,1,1,0,2,1,7,2
7,128,87,3.468230152,1,1,1,0,1,6.5,2
7,129,51,2.801865556,1,1,1,2,1,6.5,2
7,130,134,2.415065423,1,1,0,2,1,7,2
7,131,3,3.329957723,1,1,1,2,1,6,2
7,132,90,2.763651238,0,1,0,2,1,6.5,2
7,133,62,4.971630566,0,1,0,0,1,6.5,2
7,134,34,3.964490436,1,1,0,2,1,6,2
7,135,76,2.798769578,1,1,0,0,1,6.5,2
7,136,113,3.472597002,0,1,1,0,1,7,2
7,137,21,6.680217105,1,1,1,0,1,6,2
7,138,139,3.273590456,1,1,1,0,1,7,2
7,139,17,3.235470321,1,1,1,0,1,6,2
7,140,93,2.450136973,1,1,1,2,1,6.5,2
7,141,64,2.78554043,1,1,0,2,1,6.5,2
7,142,95,2.866025596,1,1,1,0,1,6.5,2
7,143,25,2.430984534,1,1,1,2,1,6,2
7,144,119,3.102505068,1,1,1,0,1,7,2
8,1,126,10.01207902,-1,1,0,2,1,7,1
8,2,117,10.00035379,-1,1,1,0,1,7,1
8,3,14,10.00123616,-1,1,0,0,1,6,1
8,4,123,10.00085731,-1,1,1,0,1,7,1
8,5,121,10.00683252,-1,1,1,2,1,7,1
8,6,99,10.00077671,-1,1,1,2,1,7,1
8,7,102,10.00731038,-1,1,0,0,1,7,1
8,8,22,10.0024702,-1,1,0,0,1,6,1
8,9,79,3.862657935,0,1,1,0,1,6.5,1
8,10,142,10.00536604,-1,1,0,2,1,7,1
8,11,31,10.01498663,-1,1,1,0,1,6,1
8,12,19,3.018322599,1,1,1,2,1,6,1
8,13,30,1.804296213,1,1,0,2,1,6,1
8,14,13,2.503634665,1,1,1,0,1,6,1
8,15,140,5.595128725,0,1,0,0,1,7,1
8,16,98,10.01594628,-1,1,0,0,1,7,1
8,17,111,6.137381912,1,1,1,2,1,7,1
8,18,135,6.30372432,1,1,1,0,1,7,1
8,19,73,1.57522161,1,1,1,2,1,6.5,1
8,20,70,1.469402313,1,1,0,0,1,6.5,1
8,21,84,1.320946302,1,1,0,0,1,6.5,1
8,22,138,1.606808073,1,1,0,2,1,7,1
8,23,92,1.352076337,1,1,0,0,1,6.5,1
8,24,125,1.465435138,1,1,1,2,1,7,1
8,25,114,7.45565425,1,1,0,0,1,7,1
8,26,105,6.116227169,1,1,1,0,1,7,1
8,27,116,1.539712348,1,1,0,2,1,7,1
8,28,120,2.624469577,1,1,0,0,1,7,1
8,29,94,1.334166092,1,1,0,2,1,6.5,1
8,30,8,1.120965018,1,1,0,2,1,6,1
8,31,66,1.478554405,1,1,0,0,1,6.5,1
8,32,55,1.210400627,1,1,1,2,1,6.5,1
8,33,130,1.353379509,1,1,0,2,1,7,1
8,34,49,1.068242226,1,1,1,0,1,6.5,1
8,35,25,1.162556657,1,1,1,2,1,6,1
8,36,124,2.950809087,1,1,0,0,1,7,1
8,37,63,1.154292666,1,1,1,2,1,6.5,1
8,38,48,1.288613315,1,1,0,0,1,6,1
8,39,80,1.399293021,1,1,0,0,1,6.5,1
8,40,50,1.199871403,1,1,0,0,1,6.5,1
8,41,42,1.259958916,1,1,0,2,1,6,1
8,42,16,1.121226437,1,1,0,2,1,6,1
8,43,89,1.108768567,1,1,1,2,1,6.5,1
8,44,76,1.10217452,1,1,0,0,1,6.5,1
8,45,5,1.157187297,1,1,1,0,1,6,1
8,46,29,1.122228947,1,1,1,2,1,6,1
8,47,103,1.102567857,1,1,1,2,1,7,1
8,48,46,1.091868982,1,1,0,2,1,6,1
8,49,3,1.035278332,1,1,1,2,1,6,1
8,50,77,1.112589938,1,1,1,2,1,6.5,1
8,51,109,1.077077658,1,1,1,0,1,7,1
8,52,40,1.067103271,1,1,0,0,1,6,1
8,53,85,1.021984885,1,1,1,2,1,6.5,1
8,54,27,1.119742445,1,1,1,0,1,6,1
8,55,83,1.001813936,1,1,1,0,1,6.5,1
8,56,47,1.022096577,1,1,1,0,1,6,1
8,57,28,1.119898511,1,1,0,0,1,6,1
8,58,18,1.068104574,1,1,0,0,1,6,1
8,59,78,1.12860444,1,1,0,2,1,6.5,1
8,60,41,1.037364555,1,1,1,2,1,6,1
8,61,122,1.193194342,1,1,0,2,1,7,1
8,62,86,1.161853904,1,1,0,2,1,6.5,1
8,63,45,1.080978421,1,1,1,2,1,6,1
8,64,32,1.085591295,1,1,0,0,1,6,1
8,65,59,1.113599391,1,1,1,2,1,6.5,1
8,66,74,1.073128897,1,1,0,2,1,6.5,1
8,67,4,1.049784088,1,1,0,2,1,6,1
8,68,34,1.160297765,1,1,0,2,1,6,1
8,69,118,1.082194655,1,1,0,0,1,7,1
8,70,106,1.121851006,1,1,0,0,1,7,1
8,71,141,1.024892497,1,1,1,2,1,7,1
8,72,137,1.047609417,1,1,1,2,1,7,1
8,73,37,1.090367481,1,1,1,2,1,6,1
8,74,133,1.046161648,1,1,1,2,1,7,1
8,75,11,1.033331572,1,1,1,2,1,6,1
8,76,127,0.995306526,1,1,1,0,1,7,1
8,77,87,1.220732729,1,1,1,0,1,6.5,1
8,78,108,1.073888402,1,1,0,2,1,7,1
8,79,12,1.059161073,1,1,0,2,1,6,1
8,80,67,1.085546015,1,1,1,2,1,6.5,1
8,81,71,1.213236997,1,1,1,0,1,6.5,1
8,82,91,1.02339824,1,1,1,0,1,6.5,1
8,83,35,1.035353497,1,1,1,0,1,6,1
8,84,96,0.935341272,1,1,0,0,1,6.5,1
8,85,52,0.905890841,1,1,0,2,1,6.5,1
8,86,115,0.996157799,1,1,1,2,1,7,1
8,87,33,0.988816926,1,1,1,2,1,6,1
8,88,51,0.96152396,1,1,1,2,1,6.5,1
8,89,128,1.096039919,1,1,0,0,1,7,1
8,90,53,1.035657782,1,1,1,0,1,6.5,1
8,91,82,1.155125827,1,1,0,2,1,6.5,1
8,92,68,0.928661192,1,1,0,2,1,6.5,1
8,93,95,0.936350121,1,1,1,0,1,6.5,1
8,94,7,1.088387818,1,1,1,2,1,6,1
8,95,65,0.902656606,1,1,1,0,1,6.5,1
8,96,58,0.997750163,1,1,0,0,1,6.5,1
8,97,2,1.112385572,1,1,0,0,1,6,1
8,98,72,1.302452542,1,1,0,0,1,6.5,1
8,99,75,0.916941092,1,1,1,0,1,6.5,1
8,100,10,1.10290263,1,1,0,0,1,6,1
8,101,15,1.064711254,1,1,1,2,1,6,1
8,102,112,1.07385429,1,1,0,2,1,7,1
8,103,26,1.171157233,1,1,0,2,1,6,1
8,104,38,1.069024673,1,1,0,2,1,6,1
8,105,69,1.054623063,1,1,1,0,1,6.5,1
8,106,107,0.975319718,1,1,1,2,1,7,1
8,107,6,1.055781639,1,1,0,0,1,6,1
8,108,23,1.03769148,1,1,1,0,1,6,1
8,109,119,0.999130011,1,1,1,0,1,7,1
8,110,131,1.003801146,1,1,1,0,1,7,1
8,111,139,0.97195417,1,1,1,0,1,7,1
8,112,21,1.010691026,1,1,1,0,1,6,1
8,113,54,1.199191592,1,1,0,0,1,6.5,1
8,114,17,1.030960082,1,1,1,0,1,6,1
8,115,143,0.968169929,1,1,1,0,1,7,1
8,116,110,0.999683037,1,1,0,0,1,7,1
8,117,113,0.984639952,1,1,1,0,1,7,1
8,118,9,0.989242563,1,1,1,0,1,6,1
8,119,90,1.157467432,1,1,0,2,1,6.5,1
8,120,136,1.12515618,1,1,0,0,1,7,1
8,121,60,1.076359509,1,1,0,2,1,6.5,1
8,122,104,1.001891215,1,1,0,2,1,7,1
8,123,101,1.02000492,1,1,1,0,1,7,1
8,124,62,1.138294767,1,1,0,0,1,6.5,1
8,125,88,1.13614666,1,1,0,0,1,6.5,1
8,126,56,1.004975722,1,1,0,2,1,6.5,1
8,127,93,0.861952766,1,1,1,2,1,6.5,1
8,128,81,1.015004445,1,1,1,2,1,6.5,1
8,129,100,1.094651016,1,1,0,2,1,7,1
8,130,43,1.113643766,1,1,1,0,1,6,1
8,131,134,1.109582106,1,1,0,2,1,7,1
8,132,144,1.010221014,1,1,0,0,1,7,1
8,133,44,1.048227344,1,1,0,0,1,6,1
8,134,39,1.069239001,1,1,1,0,1,6,1
8,135,20,1.043089518,1,1,0,2,1,6,1
8,136,57,1.138212055,1,1,1,0,1,6.5,1
8,137,61,0.945404709,1,1,1,0,1,6.5,1
8,138,24,1.071083426,1,1,0,0,1,6,1
8,139,64,1.013097835,1,1,0,2,1,6.5,1
8,140,1,1.028138504,1,1,1,0,1,6,1
8,141,132,1.050388431,1,1,0,0,1,7,1
8,142,97,1.065726141,1,1,1,0,1,7,1
8,143,36,1.012109211,1,1,0,0,1,6,1
8,144,129,1.030519654,1,1,1,2,1,7,1
8,1,111,2.791784912,1,1,1,0,1,6,2
8,2,6,2.566925017,1,1,0,2,1,6.5,2
8,3,78,2.867747462,1,1,0,0,1,7,2
8,4,65,2.51474529,1,1,1,2,1,7,2
8,5,62,2.188724856,1,1,0,2,1,7,2
8,6,136,2.033882183,1,1,0,2,1,6,2
8,7,27,2.28716766,1,1,1,2,1,6.5,2
8,8,114,2.320593718,1,1,0,2,1,6,2
8,9,102,2.126253779,1,1,0,2,1,6,2
8,10,58,2.102598044,1,1,0,2,1,7,2
8,11,24,2.016210717,1,1,0,2,1,6.5,2
8,12,25,2.205537502,1,1,1,0,1,6.5,2
8,13,49,2.233487035,1,1,1,2,1,7,2
8,14,64,2.573157122,1,1,0,0,1,7,2
8,15,130,2.03167642,1,1,0,0,1,6,2
8,16,143,2.190593733,1,1,1,2,1,6,2
8,17,123,2.074169141,1,1,1,2,1,6,2
8,18,82,2.286988651,1,1,0,0,1,7,2
8,19,20,2.28527886,1,1,0,0,1,6.5,2
8,20,46,2.106777433,1,1,0,0,1,6.5,2
8,21,94,2.653913366,1,1,0,0,1,7,2
8,22,103,2.466687294,1,1,1,0,1,6,2
8,23,17,2.1225604,1,1,1,2,1,6.5,2
8,24,8,2.045934038,1,1,0,0,1,6.5,2
8,25,105,2.298977717,1,1,1,2,1,6,2
8,26,68,2.287706196,1,1,0,0,1,7,2
8,27,117,2.139718084,1,1,1,2,1,6,2
8,28,135,2.159385212,1,1,1,2,1,6,2
8,29,116,1.967959223,1,1,0,0,1,6,2
8,30,19,2.039110872,1,1,1,0,1,6.5,2
8,31,61,2.275910327,1,1,1,2,1,7,2
8,32,38,2.152002077,1,1,0,0,1,6.5,2
8,33,80,2.327152446,1,1,0,2,1,7,2
8,34,22,1.835736872,1,1,0,2,1,6.5,2
8,35,86,2.98139636,1,1,0,0,1,7,2
8,36,89,2.556806639,1,1,1,0,1,7,2
8,37,14,2.028153597,1,1,0,2,1,6.5,2
8,38,15,2.248920136,1,1,1,0,1,6.5,2
8,39,71,2.198110898,1,1,1,2,1,7,2
8,40,104,2.424032167,1,1,0,0,1,6,2
8,41,12,2.207120508,1,1,0,0,1,6.5,2
8,42,98,2.153701001,1,1,0,2,1,6,2
8,43,100,2.346147611,1,1,0,0,1,6,2
8,44,124,2.24889991,1,1,0,2,1,6,2
8,45,108,2.434548712,1,1,0,0,1,6,2
8,46,45,2.131788564,1,1,1,0,1,6.5,2
8,47,72,2.264918639,1,1,0,2,1,7,2
8,48,84,2.172277171,1,1,0,2,1,7,2
8,49,32,2.009076927,1,1,0,2,1,6.5,2
8,50,132,2.26030999,1,1,0,2,1,6,2
8,51,99,2.645889965,1,1,1,0,1,6,2
8,52,77,2.402511558,1,1,1,0,1,7,2
8,53,50,1.941519643,1,1,0,2,1,7,2
8,54,109,2.163449287,1,1,1,2,1,6,2
8,55,76,2.127540349,1,1,0,2,1,7,2
8,56,121,2.305809638,1,1,1,0,1,6,2
8,57,74,2.16360475,1,1,0,0,1,7,2
8,58,34,2.584453397,0,1,0,0,1,6.5,2
8,59,60,2.556235199,1,1,0,0,1,7,2
8,60,93,2.76546457,1,1,1,0,1,7,2
8,61,54,2.18326735,1,1,0,2,1,7,2
8,62,11,2.378084545,1,1,1,0,1,6.5,2
8,63,29,2.296582681,1,1,1,0,1,6.5,2
8,64,55,2.521958472,1,1,1,0,1,7,2
8,65,125,2.400413562,1,1,1,0,1,6,2
8,66,2,2.100371753,1,1,0,2,1,6.5,2
8,67,110,2.637047893,1,1,0,2,1,6,2
8,68,137,2.132882239,1,1,1,0,1,6,2
8,69,56,2.588275372,1,1,0,0,1,7,2
8,70,42,2.454478467,1,1,0,0,1,6.5,2
8,71,97,2.316807967,1,1,1,2,1,6,2
8,72,91,2.184240276,1,1,1,2,1,7,2
8,73,79,2.137840755,1,1,1,2,1,7,2
8,74,57,2.265456873,1,1,1,2,1,7,2
8,75,1,2.239404592,1,1,1,2,1,6.5,2
8,76,52,2.481127545,1,1,0,0,1,7,2
8,77,122,2.934113566,1,1,0,0,1,6,2
8,78,144,2.660789963,1,1,0,2,1,6,2
8,79,83,2.54960855,1,1,1,2,1,7,2
8,80,107,2.741575489,1,1,1,0,1,6,2
8,81,133,2.954929611,1,1,1,0,1,6,2
8,82,70,2.25431274,1,1,0,2,1,7,2
8,83,31,2.080987175,1,1,1,2,1,6.5,2
8,84,7,2.295708164,1,1,1,0,1,6.5,2
8,85,140,2.846769614,1,1,0,2,1,6,2
8,86,26,2.29508118,1,1,0,0,1,6.5,2
8,87,66,2.212047025,1,1,0,2,1,7,2
8,88,127,2.056108565,1,1,1,2,1,6,2
8,89,9,2.390450647,1,1,1,2,1,6.5,2
8,90,51,2.495819554,1,1,1,0,1,7,2
8,91,131,2.637202149,1,1,1,2,1,6,2
8,92,119,2.274456521,1,1,1,2,1,6,2
8,93,87,2.415285788,1,1,1,2,1,7,2
8,94,142,4.77764623,1,1,0,0,1,6,2
8,95,18,2.704822825,1,1,0,2,1,6.5,2
8,96,16,2.405629271,1,1,0,0,1,6.5,2
8,97,139,2.269867494,1,1,1,2,1,6,2
8,98,96,2.192996618,1,1,0,2,1,7,2
8,99,113,2.24878852,1,1,1,2,1,6,2
8,100,59,2.623876704,1,1,1,0,1,7,2
8,101,67,2.666484136,1,1,1,0,1,7,2
8,102,81,2.666018049,1,1,1,0,1,7,2
8,103,118,2.293912642,1,1,0,2,1,6,2
8,104,101,3.019473629,1,1,1,2,1,6,2
8,105,120,3.695606736,1,1,0,2,1,6,2
8,106,126,2.497192157,1,1,0,0,1,6,2
8,107,128,2.173834216,1,1,0,2,1,6,2
8,108,141,2.29366209,1,1,1,0,1,6,2
8,109,41,2.186408004,1,1,1,0,1,6.5,2
8,110,37,2.150367149,1,1,1,0,1,6.5,2
8,111,92,2.352633287,1,1,0,2,1,7,2
8,112,129,2.730009041,1,1,1,0,1,6,2
8,113,106,2.480460714,1,1,0,2,1,6,2
8,114,44,2.228146353,1,1,0,2,1,6.5,2
8,115,85,2.402675775,1,1,1,0,1,7,2
8,116,21,2.253224197,1,1,1,2,1,6.5,2
8,117,36,2.478500371,1,1,0,2,1,6.5,2
8,118,138,2.37922833,1,1,0,0,1,6,2
8,119,90,2.790264695,1,1,0,0,1,7,2
8,120,95,2.189670011,1,1,1,2,1,7,2
8,121,53,2.303403734,1,1,1,2,1,7,2
8,122,5,2.279876897,1,1,1,2,1,6.5,2
8,123,63,2.630718284,1,1,1,0,1,7,2
8,124,69,2.460338064,1,1,1,2,1,7,2
8,125,40,3.143147326,1,1,0,2,1,6.5,2
8,126,75,2.400982285,1,1,1,2,1,7,2
8,127,4,2.515330615,1,1,0,0,1,6.5,2
8,128,3,2.35861816,1,1,1,0,1,6.5,2
8,129,28,2.192720708,1,1,0,2,1,6.5,2
8,130,88,2.132920275,1,1,0,2,1,7,2
8,131,115,2.930952686,1,1,1,0,1,6,2
8,132,23,2.872750654,0,1,1,2,1,6.5,2
8,133,30,2.60640568,1,1,0,0,1,6.5,2
8,134,73,2.556922859,1,1,1,0,1,7,2
8,135,47,2.523643208,1,1,1,2,1,6.5,2
8,136,39,3.063146058,1,1,1,2,1,6.5,2
8,137,134,3.420023335,1,1,0,0,1,6,2
8,138,112,2.467966921,1,1,0,0,1,6,2
8,139,13,2.486183866,1,1,1,2,1,6.5,2
8,140,33,2.783692684,1,1,1,0,1,6.5,2
8,141,10,2.121820215,1,1,0,2,1,6.5,2
8,142,35,3.00872706,0,1,1,2,1,6.5,2
8,143,48,2.41212853,1,1,0,2,1,6.5,2
8,144,43,2.204043246,1,1,1,2,1,6.5,2
9,1,67,6.115074675,1,1,1,0,1,7,1
9,2,104,10.00426664,-1,1,0,0,2,6,1
9,3,69,10.01599976,-1,1,1,2,2,7,1
9,4,102,1.830098334,1,1,0,2,1,6,1
9,5,144,2.164583909,1,1,0,2,1,6,1
9,6,122,10.00410605,-1,1,0,0,2,6,1
9,7,14,8.019514139,1,1,0,2,2,6.5,1
9,8,16,1.650112371,1,1,0,0,1,6.5,1
9,9,96,2.75734897,1,1,0,2,2,7,1
9,10,103,10.00272952,-1,1,1,0,2,6,1
9,11,4,1.458770631,1,1,0,0,1,6.5,1
9,12,135,1.295158746,1,1,1,2,1,6,1
9,13,31,8.133692862,1,1,1,2,2,6.5,1
9,14,92,2.496745379,1,1,0,2,2,7,1
9,15,40,10.01143426,-1,1,0,2,2,6.5,1
9,16,6,10.00054156,-1,1,0,2,2,6.5,1
9,17,58,1.495249609,1,1,0,2,2,7,1
9,18,54,1.110863275,1,1,0,2,1,7,1
9,19,79,1.272852906,1,1,1,2,1,7,1
9,20,63,1.616707344,1,1,1,0,1,7,1
9,21,142,10.01337469,-1,1,0,0,2,6,1
9,22,129,10.01208117,-1,1,1,0,2,6,1
9,23,117,10.01145056,-1,1,1,2,2,6,1
9,24,50,1.374885251,1,1,0,2,1,7,1
9,25,118,10.0129412,-1,1,0,2,2,6,1
9,26,130,10.01456195,-1,1,0,0,2,6,1
9,27,114,2.045714717,1,1,0,2,1,6,1
9,28,42,10.00319379,-1,1,0,0,1,6.5,1
9,29,22,10.01384561,-1,1,0,2,2,6.5,1
9,30,125,10.01609515,-1,1,1,0,2,6,1
9,31,57,2.495118899,1,1,1,2,2,7,1
9,32,71,1.048565283,1,1,1,2,1,7,1
9,33,19,10.00819006,-1,1,1,0,1,6.5,1
9,34,116,10.00238055,-1,1,0,0,1,6,1
9,35,111,10.01406175,-1,1,1,0,2,6,1
9,36,121,10.00928525,-1,1,1,0,2,6,1
9,37,124,1.322507641,1,1,0,2,1,6,1
9,38,87,1.818476005,1,1,1,2,2,7,1
9,39,81,10.00825828,-1,1,1,0,2,7,1
9,40,17,5.766162693,1,1,1,2,2,6.5,1
9,41,46,10.00391043,-1,1,0,0,1,6.5,1
9,42,89,10.00792351,-1,1,1,0,1,7,1
9,43,21,10.00344284,-1,1,1,2,2,6.5,1
9,44,49,1.227631446,1,1,1,2,1,7,1
9,45,45,10.00423404,-1,1,1,0,1,6.5,1
9,46,86,10.01656214,-1,1,0,0,1,7,1
9,47,132,1.572741365,1,1,0,2,1,6,1
9,48,26,10.00640057,-1,1,0,0,1,6.5,1
9,49,73,10.01133616,-1,1,1,0,2,7,1
9,50,47,4.422431117,1,1,1,2,2,6.5,1
9,51,60,10.01031493,-1,1,0,0,1,7,1
9,52,105,1.28655271,1,1,1,2,1,6,1
9,53,41,10.00783234,-1,1,1,0,1,6.5,1
9,54,84,1.288446044,1,1,0,2,1,7,1
9,55,38,10.00887742,-1,1,0,0,1,6.5,1
9,56,136,1.569237852,1,1,0,2,1,6,1
9,57,15,10.00516833,-1,1,1,0,1,6.5,1
9,58,59,10.00631936,-1,1,1,0,1,7,1
9,59,115,3.489445841,1,1,1,0,1,6,1
9,60,36,10.00551971,-1,1,0,2,2,6.5,1
9,61,108,10.00930638,-1,1,0,0,2,6,1
9,62,25,10.01553005,-1,1,1,0,1,6.5,1
9,63,52,10.00370697,-1,1,0,0,2,7,1
9,64,12,8.357421117,1,1,0,0,1,6.5,1
9,65,109,1.424445803,1,1,1,2,1,6,1
9,66,128,1.300687813,1,1,0,2,1,6,1
9,67,85,10.00774238,-1,1,1,0,1,7,1
9,68,107,10.01205219,-1,1,1,0,2,6,1
9,69,8,10.00968492,-1,1,0,0,1,6.5,1
9,70,131,1.310370018,1,1,1,2,1,6,1
9,71,20,9.238803384,0,1,0,0,1,6.5,1
9,72,11,10.00683104,-1,1,1,0,1,6.5,1
9,73,127,1.270659512,1,1,1,2,1,6,1
9,74,140,1.131151713,1,1,0,2,1,6,1
9,75,120,1.135982552,1,1,0,2,1,6,1
9,76,43,1.324353581,1,1,1,2,2,6.5,1
9,77,93,5.26724324,0,1,1,0,1,7,1
9,78,27,1.163115609,0,1,1,2,2,6.5,1
9,79,65,1.656078849,1,1,1,2,2,7,1
9,80,9,10.00926683,-1,1,1,2,2,6.5,1
9,81,97,1.133602602,1,1,1,2,1,6,1
9,82,23,1.188976582,1,1,1,2,1,6.5,1
9,83,64,1.445081392,1,1,0,0,1,7,1
9,84,29,1.463228056,0,1,1,0,1,6.5,1
9,85,72,1.243878738,1,1,0,2,1,7,1
9,86,56,1.980118182,1,1,0,0,1,7,1
9,87,51,4.804395843,1,1,1,0,2,7,1
9,88,106,1.113881984,1,1,0,2,1,6,1
9,89,82,7.527420891,1,1,0,0,2,7,1
9,90,123,1.214278491,1,1,1,2,1,6,1
9,91,55,5.742189318,1,1,1,0,1,7,1
9,92,13,4.750483823,1,1,1,2,2,6.5,1
9,93,44,10.01660441,-1,1,0,2,2,6.5,1
9,94,32,8.516327439,1,1,0,2,2,6.5,1
9,95,88,1.863342163,1,1,0,2,2,7,1
9,96,138,10.00184413,-1,1,0,0,2,6,1
9,97,101,1.26137306,1,1,1,2,1,6,1
9,98,35,7.09404273,1,1,1,2,2,6.5,1
9,99,80,1.53288747,1,1,0,2,1,7,1
9,100,5,1.987982824,1,1,1,2,2,6.5,1
9,101,7,10.01305501,-1,1,1,0,1,6.5,1
9,102,143,1.239926645,1,1,1,2,1,6,1
9,103,95,1.211079566,1,1,1,2,2,7,1
9,104,18,1.784591908,1,1,0,2,2,6.5,1
9,105,110,1.50158286,1,1,0,2,1,6,1
9,106,94,10.0053078,-1,1,0,0,1,7,1
9,107,1,6.446482073,1,1,1,2,2,6.5,1
9,108,91,3.274373429,1,1,1,2,2,7,1
9,109,33,10.0059701,-1,1,1,0,1,6.5,1
9,110,10,10.0079555,-1,1,0,2,2,6.5,1
9,111,112,10.00623454,-1,1,0,0,2,6,1
9,112,76,1.324364147,1,1,0,2,1,7,1
9,113,77,10.01532025,-1,1,1,0,2,7,1
9,114,39,8.356792924,1,1,1,2,2,6.5,1
9,115,113,1.362708385,1,1,1,2,1,6,1
9,116,100,10.01197824,-1,1,0,0,2,6,1
9,117,139,1.559316866,1,1,1,2,1,6,1
9,118,75,1.27563857,1,1,1,2,1,7,1
9,119,119,2.369860309,1,1,1,2,1,6,1
9,120,53,1.248501287,1,1,1,2,1,7,1
9,121,48,10.01548205,-1,1,0,2,2,6.5,1
9,122,61,1.248897945,1,1,1,2,2,7,1
9,123,34,10.00585871,-1,1,0,0,1,6.5,1
9,124,28,10.00546899,-1,1,0,2,2,6.5,1
9,125,90,10.00405231,-1,1,0,0,1,7,1
9,126,133,10.00328979,-1,1,1,0,2,6,1
9,127,74,10.00491929,-1,1,0,0,2,7,1
9,128,141,10.01506607,-1,1,1,0,2,6,1
9,129,37,10.00101338,-1,1,1,0,1,6.5,1
9,130,3,10.00872678,-1,1,1,0,1,6.5,1
9,131,68,3.021141223,1,1,0,0,1,7,1
9,132,70,1.483852778,1,1,0,2,2,7,1
9,133,126,5.443038028,1,1,0,0,2,6,1
9,134,62,1.65097693,1,1,0,2,2,7,1
9,135,134,3.021795679,1,1,0,0,2,6,1
9,136,137,3.923942131,1,1,1,0,2,6,1
9,137,2,6.481159788,1,1,0,2,2,6.5,1
9,138,99,5.075970326,1,1,1,0,2,6,1
9,139,30,4.842624767,1,1,0,0,1,6.5,1
9,140,24,1.209851555,1,1,0,2,1,6.5,1
9,141,78,3.340176444,1,1,0,0,2,7,1
9,142,66,1.468666561,1,1,0,2,2,7,1
9,143,98,1.72258009,1,1,0,2,1,6,1
9,144,83,1.155155577,1,1,1,2,1,7,1
9,1,73,2.448644374,1,1,1,2,1,6.5,2
9,2,116,2.498866022,1,1,0,2,2,7,2
9,3,35,2.757329047,1,1,1,0,2,6,2
9,4,132,2.526548786,1,1,0,0,2,7,2
9,5,93,2.236703872,1,1,1,2,1,6.5,2
9,6,90,2.459173025,1,1,0,2,1,6.5,2
9,7,19,2.376847412,1,1,1,2,2,6,2
9,8,114,2.646706061,1,1,0,0,1,7,2
9,9,64,2.197271993,1,1,0,2,2,6.5,2
9,10,124,3.075908141,1,1,0,0,2,7,2
9,11,120,2.360305191,1,1,0,0,2,7,2
9,12,118,2.994657792,1,1,0,0,1,7,2
9,13,139,2.438261224,1,1,1,0,2,7,2
9,14,3,2.382425381,1,1,1,2,2,6,2
9,15,2,2.832535036,1,1,0,0,1,6,2
9,16,48,2.492164188,1,1,0,0,2,6,2
9,17,40,2.598763235,1,1,0,0,2,6,2
9,18,101,2.781891976,1,1,1,0,1,7,2
9,19,60,2.03466715,1,1,0,2,2,6.5,2
9,20,112,2.516445471,1,1,0,2,2,7,2
9,21,21,2.489997057,1,1,1,0,1,6,2
9,22,24,2.43022995,1,1,0,0,2,6,2
9,23,29,2.165370282,1,1,1,2,1,6,2
9,24,78,2.23279555,1,1,0,2,1,6.5,2
9,25,18,2.56204759,1,1,0,0,1,6,2
9,26,56,2.122371799,1,1,0,2,2,6.5,2
9,27,88,2.520762526,1,1,0,0,2,6.5,2
9,28,99,2.357560582,1,1,1,2,2,7,2
9,29,16,2.235945573,1,1,0,2,2,6,2
9,30,85,2.144667678,0,1,1,2,1,6.5,2
9,31,98,2.549768993,1,1,0,0,1,7,2
9,32,115,2.366926125,1,1,1,2,2,7,2
9,33,138,2.257820643,1,1,0,2,1,7,2
9,34,55,2.293832326,1,1,1,2,2,6.5,2
9,35,65,1.673377859,0,1,1,0,1,6.5,2
9,36,6,2.878163418,1,1,0,0,1,6,2
9,37,102,4.022547337,1,1,0,0,1,7,2
9,38,68,2.003193794,1,1,0,2,2,6.5,2
9,39,117,2.425331794,1,1,1,0,1,7,2
9,40,39,2.510427072,1,1,1,0,2,6,2
9,41,34,2.60386123,1,1,0,2,1,6,2
9,42,135,2.227530621,1,1,1,0,2,7,2
9,43,61,2.329305773,1,1,1,0,1,6.5,2
9,44,128,2.630007471,1,1,0,0,2,7,2
9,45,59,2.187828869,1,1,1,2,2,6.5,2
9,46,137,2.411632593,1,1,1,2,1,7,2
9,47,129,2.446351363,1,1,1,2,1,7,2
9,48,23,2.567346933,1,1,1,0,2,6,2
9,49,76,2.64788064,1,1,0,0,2,6.5,2
9,50,84,2.351722098,1,1,0,0,2,6.5,2
9,51,53,2.229477688,1,1,1,0,1,6.5,2
9,52,108,2.165914555,1,1,0,2,2,7,2
9,53,57,2.249323885,1,1,1,0,1,6.5,2
9,54,110,3.002895243,1,1,0,0,1,7,2
9,55,54,2.692819851,1,1,0,0,1,6.5,2
9,56,140,2.907115247,1,1,0,0,2,7,2
9,57,94,2.1792497,1,1,0,2,1,6.5,2
9,58,36,2.313572566,1,1,0,0,2,6,2
9,59,125,2.177646464,1,1,1,2,1,7,2
9,60,17,2.689217022,1,1,1,0,1,6,2
9,61,87,2.82394198,1,1,1,0,2,6.5,2
9,62,11,2.259729071,1,1,1,2,2,6,2
9,63,113,2.765518199,1,1,1,0,1,7,2
9,64,50,2.820589705,1,1,0,0,1,6.5,2
9,65,134,2.420823051,1,1,0,2,1,7,2
9,66,142,2.348803912,1,1,0,2,1,7,2
9,67,122,2.439447878,1,1,0,2,1,7,2
9,68,5,2.737536281,1,1,1,0,1,6,2
9,69,10,3.036219068,1,1,0,0,1,6,2
9,70,37,2.424607002,1,1,1,2,1,6,2
9,71,46,2.420862294,1,1,0,2,1,6,2
9,72,136,4.153570151,1,1,0,0,2,7,2
9,73,62,2.742850114,1,1,0,0,1,6.5,2
9,74,126,2.693007313,1,1,0,2,1,7,2
9,75,100,2.400981382,1,1,0,2,2,7,2
9,76,41,2.957251768,1,1,1,2,1,6,2
9,77,70,2.789364788,1,1,0,0,1,6.5,2
9,78,58,2.835837805,1,1,0,0,1,6.5,2
9,79,123,2.68926985,1,1,1,0,2,7,2
9,80,14,4.352126605,1,1,0,0,1,6,2
9,81,45,2.232802493,1,1,1,2,1,6,2
9,82,130,2.457135397,1,1,0,2,1,7,2
9,83,75,2.349568853,1,1,1,0,2,6.5,2
9,84,103,2.236975858,1,1,1,2,2,7,2
9,85,81,2.214096463,1,1,1,2,1,6.5,2
9,86,97,2.810594761,1,1,1,0,1,7,2
9,87,109,2.303529927,1,1,1,0,1,7,2
9,88,13,3.220638004,1,1,1,0,1,6,2
9,89,42,2.571649498,1,1,0,2,1,6,2
9,90,20,2.603025953,1,1,0,2,2,6,2
9,91,38,2.817708347,1,1,0,2,1,6,2
9,92,15,2.701240538,1,1,1,2,2,6,2
9,93,86,2.713740708,1,1,0,2,1,6.5,2
9,94,26,2.616212276,1,1,0,2,1,6,2
9,95,25,2.292242976,1,1,1,2,1,6,2
9,96,131,2.610117503,1,1,1,0,2,7,2
9,97,9,2.519368486,1,1,1,0,1,6,2
9,98,63,2.264277963,1,1,1,2,2,6.5,2
9,99,30,2.201623461,1,1,0,2,1,6,2
9,100,91,2.52182813,1,1,1,0,2,6.5,2
9,101,49,2.646868467,1,1,1,0,1,6.5,2
9,102,79,2.563044971,1,1,1,0,2,6.5,2
9,103,32,3.176691043,1,1,0,0,2,6,2
9,104,96,2.523632714,1,1,0,0,2,6.5,2
9,105,44,2.634361354,1,1,0,0,2,6,2
9,106,89,2.285979458,1,1,1,2,1,6.5,2
9,107,8,2.239974945,1,1,0,2,2,6,2
9,108,95,2.418091723,1,1,1,0,2,6.5,2
9,109,4,2.196736172,1,1,0,2,2,6,2
9,110,72,2.377848416,1,1,0,0,2,6.5,2
9,111,141,2.362884376,1,1,1,2,1,7,2
9,112,27,2.83609681,1,1,1,0,2,6,2
9,113,82,2.357115926,1,1,0,2,1,6.5,2
9,114,52,2.119310829,1,1,0,2,2,6.5,2
9,115,69,2.330886066,1,1,1,0,1,6.5,2
9,116,107,2.37328443,0,1,1,2,2,7,2
9,117,104,2.236743115,1,1,0,2,2,7,2
9,118,77,2.342229769,1,1,1,2,1,6.5,2
9,119,133,2.316133638,1,1,1,2,1,7,2
9,120,92,2.337256145,1,1,0,0,2,6.5,2
9,121,31,3.277857321,1,1,1,0,2,6,2
9,122,12,3.950767884,1,1,0,2,2,6,2
9,123,121,2.34262522,1,1,1,2,1,7,2
9,124,83,2.386774736,1,1,1,0,2,6.5,2
9,125,28,3.065521067,1,1,0,0,2,6,2
9,126,33,2.500084373,1,1,1,2,1,6,2
9,127,43,2.8882776,1,1,1,0,2,6,2
9,128,74,3.773015765,1,1,0,2,1,6.5,2
9,129,119,3.457999653,1,1,1,0,2,7,2
9,130,7,2.220138408,1,1,1,2,2,6,2
9,131,80,2.78796773,1,1,0,0,2,6.5,2
9,132,66,2.743654901,1,1,0,0,1,6.5,2
9,133,51,2.046485997,1,1,1,2,2,6.5,2
9,134,71,2.476155977,1,1,1,0,2,6.5,2
9,135,22,2.753337107,1,1,0,0,1,6,2
9,136,105,3.297058721,1,1,1,0,1,7,2
9,137,127,2.766299441,1,1,1,0,2,7,2
9,138,1,2.687596278,1,1,1,0,1,6,2
9,139,47,2.564883968,1,1,1,0,2,6,2
9,140,144,7.808757273,1,1,0,0,2,7,2
9,141,143,2.745746866,1,1,1,0,2,7,2
9,142,111,2.236773303,1,1,1,2,2,7,2
9,143,106,2.816199899,1,1,0,0,1,7,2
9,144,67,2.203747425,1,1,1,2,2,6.5,2
10,1,72,10.00082501,-1,1,0,0,2,6.5,1
10,2,18,10.00172519,-1,1,0,0,1,6,1
10,3,136,10.00313704,-1,1,0,0,2,7,1
10,4,43,10.01278363,-1,1,1,0,2,6,1
10,5,26,10.00983888,-1,1,0,2,1,6,1
10,6,31,10.00362879,-1,1,1,0,2,6,1
10,7,9,5.378398726,1,1,1,0,1,6,1
10,8,42,10.0141828,-1,1,0,2,1,6,1
10,9,50,10.00164067,-1,1,0,0,1,6.5,1
10,10,68,2.568706257,1,1,0,2,2,6.5,1
10,11,17,10.00695571,-1,1,1,0,1,6,1
10,12,83,10.00474209,-1,1,1,0,2,6.5,1
10,13,24,6.064037673,1,1,0,0,2,6,1
10,14,41,3.883660184,1,1,1,2,1,6,1
10,15,57,10.00913129,-1,1,1,0,1,6.5,1
10,16,46,3.233820704,1,1,0,2,1,6,1
10,17,20,4.501757341,1,1,0,2,2,6,1
10,18,137,9.399899175,1,1,1,2,1,7,1
10,19,8,1.549919325,1,1,0,2,2,6,1
10,20,33,10.00551971,-1,1,1,2,1,6,1
10,21,25,10.00161078,-1,1,1,2,1,6,1
10,22,49,10.00441788,-1,1,1,0,1,6.5,1
10,23,103,5.422142528,1,1,1,2,2,7,1
10,24,77,3.829152573,1,1,1,2,1,6.5,1
10,25,108,8.576452867,1,1,0,2,2,7,1
10,26,94,10.00489423,-1,1,0,2,1,6.5,1
10,27,54,10.00084554,-1,1,0,0,1,6.5,1
10,28,69,10.0020497,-1,1,1,0,1,6.5,1
10,29,90,2.570832937,1,1,0,2,1,6.5,1
10,30,13,10.0027268,-1,1,1,0,1,6,1
10,31,14,8.307589788,1,1,0,0,1,6,1
10,32,79,10.01654494,-1,1,1,0,2,6.5,1
10,33,107,3.151613726,1,1,1,2,2,7,1
10,34,51,1.711276838,1,1,1,2,2,6.5,1
10,35,56,1.624123707,1,1,0,2,2,6.5,1
10,36,99,1.751592293,1,1,1,2,2,7,1
10,37,3,1.255153011,1,1,1,2,2,6,1
10,38,113,10.00321885,-1,1,1,0,1,7,1
10,39,115,3.078133834,1,1,1,2,2,7,1
10,40,111,9.840499898,1,1,1,2,2,7,1
10,41,92,10.01660652,-1,1,0,0,2,6.5,1
10,42,37,4.87399277,1,1,1,2,1,6,1
10,43,121,8.292539715,1,1,1,2,1,7,1
10,44,15,1.410878821,1,1,1,2,2,6,1
10,45,10,10.00491868,-1,1,0,0,1,6,1
10,46,35,10.00407556,-1,1,1,0,2,6,1
10,47,144,4.260255232,1,1,0,0,2,7,1
10,48,143,3.842194601,1,1,1,0,2,7,1
10,49,120,5.237991653,1,1,0,0,2,7,1
10,50,91,5.836828847,1,1,1,0,2,6.5,1
10,51,66,10.00509166,-1,1,0,0,1,6.5,1
10,52,58,9.967679896,1,1,0,0,1,6.5,1
10,53,106,8.98189107,1,1,0,0,1,7,1
10,54,134,2.421713268,1,1,0,2,1,7,1
10,55,138,1.733438384,1,1,0,2,1,7,1
10,56,123,3.657992408,1,1,1,0,2,7,1
10,57,21,2.039559872,1,1,1,0,1,6,1
10,58,75,10.00213091,-1,1,1,0,2,6.5,1
10,59,132,10.00176594,-1,1,0,0,2,7,1
10,60,112,1.776266914,1,1,0,2,2,7,1
10,61,67,1.44069702,1,1,1,2,2,6.5,1
10,62,142,3.475964591,1,1,0,2,1,7,1
10,63,140,4.521727607,1,1,0,0,2,7,1
10,64,129,3.623197265,1,1,1,2,1,7,1
10,65,63,1.496055303,1,1,1,2,2,6.5,1
10,66,73,5.52608149,1,1,1,2,1,6.5,1
10,67,61,10.01406054,-1,1,1,0,1,6.5,1
10,68,104,7.754851291,1,1,0,2,2,7,1
10,69,28,10.00270989,-1,1,0,0,2,6,1
10,70,84,10.01370313,-1,1,0,0,2,6.5,1
10,71,64,1.585620684,1,1,0,2,2,6.5,1
10,72,95,10.0138278,-1,1,1,0,2,6.5,1
10,73,12,1.756373626,1,1,0,2,2,6,1
10,74,4,1.437408137,1,1,0,2,2,6,1
10,75,93,10.00777982,-1,1,1,2,1,6.5,1
10,76,34,9.911029304,1,1,0,2,1,6,1
10,77,47,10.01341876,-1,1,1,0,2,6,1
10,78,124,10.00407918,-1,1,0,0,2,7,1
10,79,141,1.360209498,1,1,1,2,1,7,1
10,80,29,10.01565744,-1,1,1,2,1,6,1
10,81,127,10.00915786,-1,1,1,0,2,7,1
10,82,16,1.392999313,1,1,0,2,2,6,1
10,83,71,10.01605138,-1,1,1,0,2,6.5,1
10,84,11,1.293214698,1,1,1,2,2,6,1
10,85,74,10.01324398,-1,1,0,2,1,6.5,1
10,86,85,10.01643264,-1,1,1,2,1,6.5,1
10,87,133,2.123267148,1,1,1,2,1,7,1
10,88,89,2.389915099,1,1,1,2,1,6.5,1
10,89,1,6.261888051,1,1,1,0,1,6,1
10,90,19,1.643704559,1,1,1,2,2,6,1
10,91,96,8.681572747,1,1,0,0,2,6.5,1
10,92,105,10.01610994,-1,1,1,0,1,7,1
10,93,139,10.00680296,-1,1,1,0,2,7,1
10,94,44,5.704124914,1,1,0,0,2,6,1
10,95,80,5.422608919,1,1,0,0,2,6.5,1
10,96,131,3.750708717,1,1,1,0,2,7,1
10,97,128,9.960989231,1,1,0,0,2,7,1
10,98,22,10.00047967,-1,1,0,0,1,6,1
10,99,55,1.528554718,1,1,1,2,2,6.5,1
10,100,102,10.00781966,-1,1,0,0,1,7,1
10,101,45,3.145689813,1,1,1,2,1,6,1
10,102,97,10.00480669,-1,1,1,0,1,7,1
10,103,32,10.01535708,-1,1,0,0,2,6,1
10,104,100,2.801758096,1,1,0,2,2,7,1
10,105,27,10.00600512,-1,1,1,0,2,6,1
10,106,48,10.00905069,-1,1,0,0,2,6,1
10,107,2,10.00418182,-1,1,0,0,1,6,1
10,108,130,3.002492548,1,1,0,2,1,7,1
10,109,76,9.183193341,1,1,0,0,2,6.5,1
10,110,101,10.00256862,-1,1,1,0,1,7,1
10,111,86,2.574385957,1,1,0,2,1,6.5,1
10,112,36,10.00099527,-1,1,0,0,2,6,1
10,113,30,10.00554054,-1,1,0,2,1,6,1
10,114,52,7.245410733,1,1,0,2,2,6.5,1
10,115,119,3.56463734,1,1,1,0,2,7,1
10,116,114,10.01222396,-1,1,0,0,1,7,1
10,117,23,6.352594203,1,1,1,0,2,6,1
10,118,122,2.73304082,1,1,0,2,1,7,1
10,119,125,1.695548763,1,1,1,2,1,7,1
10,120,117,10.00785045,-1,1,1,0,1,7,1
10,121,39,3.322801965,1,1,1,0,2,6,1
10,122,59,2.168608149,1,1,1,2,2,6.5,1
10,123,109,10.00062246,-1,1,1,0,1,7,1
10,124,98,10.00749364,-1,1,0,0,1,7,1
10,125,62,10.00212698,-1,1,0,0,1,6.5,1
10,126,6,8.904185892,1,1,0,0,1,6,1
10,127,87,10.00592331,-1,1,1,0,2,6.5,1
10,128,5,10.00702997,-1,1,1,0,1,6,1
10,129,88,10.01368773,-1,1,0,0,2,6.5,1
10,130,53,10.00828303,-1,1,1,0,1,6.5,1
10,131,82,3.490185122,1,1,0,2,1,6.5,1
10,132,78,1.808199718,1,1,0,2,1,6.5,1
10,133,60,2.375804146,1,1,0,2,2,6.5,1
10,134,7,1.480872709,1,1,1,2,2,6,1
10,135,116,1.545103881,1,1,0,2,2,7,1
10,136,126,2.036898881,1,1,0,2,1,7,1
10,137,70,10.00561057,1,1,0,0,1,6.5,1
10,138,135,7.405976137,1,1,1,0,2,7,1
10,139,40,10.00995479,-1,1,0,0,2,6,1
10,140,110,9.025948214,1,1,0,0,1,7,1
10,141,81,1.807300746,1,1,1,2,1,6.5,1
10,142,118,7.522715328,1,1,0,0,1,7,1
10,143,65,9.704069068,1,1,1,0,1,6.5,1
10,144,38,2.278636148,1,1,0,2,1,6,1
10,1,123,2.569288264,1,1,1,2,1,6,2
10,2,44,2.927822983,1,1,0,2,2,6.5,2
10,3,87,2.639860838,1,1,1,2,2,7,2
10,4,134,3.767189356,1,1,0,0,2,6,2
10,5,135,2.509322224,1,1,1,2,1,6,2
10,6,22,2.829070766,1,1,0,2,2,6.5,2
10,7,61,2.519515195,1,1,1,2,2,7,2
10,8,100,3.195012792,1,1,0,0,2,6,2
10,9,17,2.341883523,1,1,1,2,2,6.5,2
10,10,67,2.617827285,1,1,1,0,1,7,2
10,11,53,2.438518116,1,1,1,2,1,7,2
10,12,25,2.379975398,1,1,1,0,1,6.5,2
10,13,93,2.61294392,1,1,1,0,1,7,2
10,14,45,2.322270672,1,1,1,0,1,6.5,2
10,15,13,2.968596678,1,1,1,2,2,6.5,2
10,16,77,2.904991887,1,1,1,0,2,7,2
10,17,121,2.853790064,1,1,1,0,2,6,2
10,18,21,2.292693669,1,1,1,2,2,6.5,2
10,19,138,2.602255881,1,1,0,0,2,6,2
10,20,55,2.493442007,1,1,1,0,1,7,2
10,21,15,2.323179606,1,1,1,0,1,6.5,2
10,22,144,2.314030504,1,1,0,2,1,6,2
10,23,125,2.406399058,1,1,1,0,2,6,2
10,24,115,2.37551103,1,1,1,0,1,6,2
10,25,1,2.224900722,1,1,1,2,2,6.5,2
10,26,7,2.253717313,1,1,1,0,1,6.5,2
10,27,143,2.327419382,1,1,1,2,1,6,2
10,28,117,2.414858989,1,1,1,2,2,6,2
10,29,16,2.484087935,1,1,0,0,1,6.5,2
10,30,108,2.470421034,1,1,0,0,2,6,2
10,31,12,2.223528719,1,1,0,0,1,6.5,2
10,32,27,2.559793218,1,1,1,2,2,6.5,2
10,33,8,2.352500019,1,1,0,0,1,6.5,2
10,34,29,2.390279759,1,1,1,0,1,6.5,2
10,35,98,2.269692922,1,1,0,2,1,6,2
10,36,94,2.420650683,1,1,0,0,1,7,2
10,37,99,2.478698333,1,1,1,0,2,6,2
10,38,81,2.929522214,1,1,1,0,2,7,2
10,39,65,2.267025591,1,1,1,2,2,7,2
10,40,113,2.289445539,1,1,1,2,1,6,2
10,41,19,2.282561072,1,1,1,0,1,6.5,2
10,42,4,2.375868445,1,1,0,0,1,6.5,2
10,43,109,2.595005849,1,1,1,2,1,6,2
10,44,75,2.261846695,1,1,1,2,1,7,2
10,45,66,2.626876165,1,1,0,2,2,7,2
10,46,124,2.393332881,1,1,0,2,1,6,2
10,47,116,2.358301976,1,1,0,0,1,6,2
10,48,96,2.329015071,1,1,0,2,2,7,2
10,49,64,2.589135668,1,1,0,0,1,7,2
10,50,23,2.158281147,1,1,1,2,1,6.5,2
10,51,18,2.454976718,1,1,0,2,2,6.5,2
10,52,31,2.420884934,1,1,1,2,2,6.5,2
10,53,78,2.500546235,1,1,0,0,2,7,2
10,54,46,2.373814515,1,1,0,0,1,6.5,2
10,55,71,2.490799128,1,1,1,2,1,7,2
10,56,69,2.378551473,1,1,1,2,2,7,2
10,57,52,2.422906865,1,1,0,0,2,7,2
10,58,90,2.354050126,1,1,0,0,1,7,2
10,59,137,2.637946373,1,1,1,0,2,6,2
10,60,10,2.400668644,1,1,0,2,2,6.5,2
10,61,97,2.19998219,1,1,1,2,1,6,2
10,62,131,2.273295449,1,1,1,2,1,6,2
10,63,73,2.63318919,1,1,1,0,2,7,2
10,64,110,2.204473726,1,1,0,2,1,6,2
10,65,58,2.349559797,1,1,0,2,2,7,2
10,66,83,2.171738852,1,1,1,2,1,7,2
10,67,107,2.354515912,1,1,1,0,2,6,2
10,68,76,2.105564234,1,1,0,2,1,7,2
10,69,130,2.353785385,1,1,0,0,2,6,2
10,70,32,2.223215679,1,1,0,2,2,6.5,2
10,71,43,2.038793422,1,1,1,2,2,6.5,2
10,72,57,2.326062774,1,1,1,2,2,7,2
10,73,38,2.370150105,1,1,0,0,1,6.5,2
10,74,86,2.459976001,1,1,0,0,1,7,2
10,75,37,2.574399541,1,1,1,0,1,6.5,2
10,76,54,2.160254477,1,1,0,2,1,7,2
10,77,34,2.520867879,1,1,0,0,1,6.5,2
10,78,91,2.409551194,1,1,1,2,2,7,2
10,79,68,2.488772669,1,1,0,0,1,7,2
10,80,127,2.402720158,1,1,1,2,1,6,2
10,81,56,2.593445478,1,1,0,0,1,7,2
10,82,140,2.33226139,1,1,0,2,1,6,2
10,83,92,2.126162995,1,1,0,2,2,7,2
10,84,47,2.308328768,1,1,1,2,2,6.5,2
10,85,28,2.200417789,1,1,0,2,2,6.5,2
10,86,26,2.510355528,1,1,0,0,1,6.5,2
10,87,102,2.39356351,1,1,0,2,1,6,2
10,88,112,2.88713351,1,1,0,0,2,6,2
10,89,39,2.358161003,1,1,1,2,2,6.5,2
10,90,30,2.519476254,1,1,0,0,1,6.5,2
10,91,79,2.227002045,1,1,1,2,1,7,2
10,92,84,2.119653452,1,1,0,2,1,7,2
10,93,35,2.269188496,1,1,1,2,2,6.5,2
10,94,63,2.548390047,1,1,1,0,1,7,2
10,95,139,2.799330752,1,1,1,2,1,6,2
10,96,104,2.723593772,1,1,0,0,2,6,2
10,97,49,2.401806697,1,1,1,2,1,7,2
10,98,2,2.802789287,1,1,0,2,2,6.5,2
10,99,11,2.361247028,1,1,1,0,1,6.5,2
10,100,141,2.748277751,1,1,1,0,2,6,2
10,101,33,2.326454904,1,1,1,0,1,6.5,2
10,102,129,3.342963013,1,1,1,0,2,6,2
10,103,80,2.159585229,1,1,0,2,1,7,2
10,104,62,2.321122658,1,1,0,2,2,7,2
10,105,6,2.226481318,1,1,0,2,2,6.5,2
10,106,24,2.124028466,1,1,0,2,1,6.5,2
10,107,133,2.686354079,1,1,1,0,2,6,2
10,108,50,2.221328685,1,1,0,2,1,7,2
10,109,40,2.275832975,1,1,0,2,2,6.5,2
10,110,114,2.28226705,1,1,0,2,1,6,2
10,111,126,2.451728588,1,1,0,0,2,6,2
10,112,9,2.147053061,1,1,1,2,2,6.5,2
10,113,59,2.456156429,1,1,1,0,1,7,2
10,114,105,2.198547397,1,1,1,2,1,6,2
10,115,14,2.115664531,1,1,0,2,2,6.5,2
10,116,51,2.301797792,1,1,1,0,2,7,2
10,117,132,2.161550711,1,1,0,2,1,6,2
10,118,41,2.424057899,1,1,1,0,1,6.5,2
10,119,89,2.495517973,1,1,1,0,1,7,2
10,120,48,2.426579426,1,1,0,2,2,6.5,2
10,121,111,2.539666584,1,1,1,0,2,6,2
10,122,74,2.769883251,1,1,0,0,2,7,2
10,123,95,2.297591523,1,1,1,2,2,7,2
10,124,142,2.553945678,1,1,0,0,2,6,2
10,125,36,2.135039809,1,1,0,2,2,6.5,2
10,126,3,2.362338292,1,1,1,0,1,6.5,2
10,127,122,2.54023229,1,1,0,0,2,6,2
10,128,118,2.341759756,1,1,0,2,2,6,2
10,129,85,2.590776336,1,1,1,0,1,7,2
10,130,128,2.231860656,1,1,0,2,1,6,2
10,131,120,2.162261616,1,1,0,2,1,6,2
10,132,20,2.517053137,1,1,0,0,1,6.5,2
10,133,60,2.415869048,1,1,0,0,1,7,2
10,134,106,2.231521354,1,1,0,2,1,6,2
10,135,82,2.393374841,1,1,0,0,2,7,2
10,136,42,2.405377829,1,1,0,0,1,6.5,2
10,137,70,2.294617492,1,1,0,2,2,7,2
10,138,136,2.255174142,1,1,0,2,1,6,2
10,139,88,2.340770827,1,1,0,2,2,7,2
10,140,101,2.243748934,1,1,1,2,1,6,2
10,141,119,2.201751455,1,1,1,2,1,6,2
10,142,5,2.230328058,1,1,1,2,2,6.5,2
10,143,103,2.569279812,1,1,1,0,2,6,2
10,144,72,2.108186586,1,1,0,2,1,7,2
11,1,59,2.740608421,1,1,1,0,1,7,1
11,2,136,3.892228486,1,1,0,2,1,6,1
11,3,18,10.01500026,-1,1,0,2,2,6.5,1
11,4,33,3.991065529,1,1,1,0,1,6.5,1
11,5,117,10.01580264,-1,1,1,2,2,6,1
11,6,66,10.01295569,-1,1,0,2,2,7,1
11,7,45,3.380959195,1,1,1,0,1,6.5,1
11,8,21,10.00544092,-1,1,1,2,2,6.5,1
11,9,101,2.307093814,1,1,1,2,1,6,1
11,10,89,7.622395496,1,1,1,0,1,7,1
11,11,125,10.00518342,-1,1,1,0,2,6,1
11,12,10,10.00796516,-1,1,0,2,2,6.5,1
11,13,81,10.00073204,-1,1,1,0,2,7,1
11,14,37,10.01345167,-1,1,1,0,1,6.5,1
11,15,139,3.89953527,1,1,1,2,1,6,1
11,16,50,7.446873599,1,1,0,2,1,7,1
11,17,133,10.00458059,-1,1,1,0,2,6,1
11,18,55,7.220512426,0,1,1,0,1,7,1
11,19,124,6.140340359,1,1,0,2,1,6,1
11,20,65,3.371763001,1,1,1,2,2,7,1
11,21,127,2.084562476,1,1,1,2,1,6,1
11,22,123,4.036180428,1,1,1,2,1,6,1
11,23,53,7.081405813,1,1,1,2,1,7,1
11,24,39,8.374085897,0,1,1,2,2,6.5,1
11,25,119,1.588189303,1,1,1,2,1,6,1
11,26,32,10.00332541,-1,1,0,2,2,6.5,1
11,27,15,10.00755885,-1,1,1,0,1,6.5,1
11,28,129,10.01504615,-1,1,1,0,2,6,1
11,29,62,2.82156837,1,1,0,2,2,7,1
11,30,114,8.059958191,1,1,0,2,1,6,1
11,31,67,7.576751417,1,1,1,0,1,7,1
11,32,6,10.00104749,-1,1,0,2,2,6.5,1
11,33,68,6.878084026,1,1,0,0,1,7,1
11,34,90,10.01163199,-1,1,0,0,1,7,1
11,35,14,10.01578785,-1,1,0,2,2,6.5,1
11,36,107,10.00934743,-1,1,1,0,2,6,1
11,37,7,10.01357543,-1,1,1,0,1,6.5,1
11,38,92,10.0152478,-1,1,0,2,2,7,1
11,39,36,10.00507505,-1,1,0,2,2,6.5,1
11,40,88,6.214481348,1,1,0,2,2,7,1
11,41,98,7.835555254,1,1,0,2,1,6,1
11,42,69,4.110840937,1,1,1,2,2,7,1
11,43,30,7.226704099,1,1,0,0,1,6.5,1
11,44,99,10.00852212,-1,1,1,0,2,6,1
11,45,43,10.00071604,-1,1,1,2,2,6.5,1
11,46,2,10.00730648,-1,1,0,2,2,6.5,1
11,47,19,9.754347468,1,1,1,0,1,6.5,1
11,48,110,2.984146045,1,1,0,2,1,6,1
11,49,104,10.00977639,-1,1,0,0,2,6,1
11,50,75,10.01206155,-1,1,1,2,1,7,1
11,51,85,2.113078102,0,1,1,0,1,7,1
11,52,23,10.01335567,-1,1,1,2,1,6.5,1
11,53,16,5.49469296,0,1,0,0,1,6.5,1
11,54,51,9.873579509,1,1,1,0,2,7,1
11,55,60,10.01476118,-1,1,0,0,1,7,1
11,56,46,4.058763688,0,1,0,0,1,6.5,1
11,57,73,10.01438203,-1,1,1,0,2,7,1
11,58,80,10.00601146,-1,1,0,2,1,7,1
11,59,138,10.00625205,-1,1,0,0,2,6,1
11,60,61,4.282744308,1,1,1,2,2,7,1
11,61,86,10.00011381,-1,1,0,0,1,7,1
11,62,142,10.00292905,-1,1,0,0,2,6,1
11,63,5,9.391665346,1,1,1,2,2,6.5,1
11,64,1,8.646030474,0,1,1,2,2,6.5,1
11,65,140,5.338735916,1,1,0,2,1,6,1
11,66,54,8.571492223,1,1,0,2,1,7,1
11,67,78,10.00541556,-1,1,0,0,2,7,1
11,68,12,10.00818885,-1,1,0,0,1,6.5,1
11,69,3,10.0055025,-1,1,1,0,1,6.5,1
11,70,83,10.00511128,-1,1,1,2,1,7,1
11,71,137,10.00279321,-1,1,1,0,2,6,1
11,72,134,10.01222486,-1,1,0,0,2,6,1
11,73,71,6.814034277,1,1,1,2,1,7,1
11,74,132,7.424565042,1,1,0,2,1,6,1
11,75,77,10.01205008,-1,1,1,0,2,7,1
11,76,22,10.00959074,-1,1,0,2,2,6.5,1
11,77,58,5.985823843,1,1,0,2,2,7,1
11,78,76,1.685493748,1,1,0,2,1,7,1
11,79,47,10.00613039,-1,1,1,2,2,6.5,1
11,80,118,10.00438588,-1,1,0,2,2,6,1
11,81,11,10.00456217,-1,1,1,0,1,6.5,1
11,82,64,10.01102704,-1,1,0,0,1,7,1
11,83,96,3.324865856,1,1,0,2,2,7,1
11,84,116,7.895373075,1,1,0,0,1,6,1
11,85,8,10.00869992,-1,1,0,0,1,6.5,1
11,86,28,10.00793317,-1,1,0,2,2,6.5,1
11,87,49,9.929951474,1,1,1,2,1,7,1
11,88,91,6.428822024,1,1,1,2,2,7,1
11,89,113,1.970127767,1,1,1,2,1,6,1
11,90,143,4.412253541,1,1,1,2,1,6,1
11,91,79,1.780380206,1,1,1,2,1,7,1
11,92,108,10.00227369,-1,1,0,0,2,6,1
11,93,109,1.821897711,1,1,1,2,1,6,1
11,94,135,3.091973103,1,1,1,2,1,6,1
11,95,74,10.00107194,-1,1,0,0,2,7,1
11,96,82,10.01338103,-1,1,0,0,2,7,1
11,97,112,10.00951769,-1,1,0,0,2,6,1
11,98,56,10.00992944,-1,1,0,0,1,7,1
11,99,122,3.303287826,1,1,0,0,2,6,1
11,100,93,4.952832379,1,1,1,0,1,7,1
11,101,103,1.739668395,1,1,1,0,2,6,1
11,102,141,1.304651075,1,1,1,0,2,6,1
11,103,57,3.686341703,1,1,1,2,2,7,1
11,104,105,7.647566695,1,1,1,2,1,6,1
11,105,29,1.453526833,1,1,1,0,1,6.5,1
11,106,42,1.66915529,1,1,0,0,1,6.5,1
11,107,97,5.227832794,1,1,1,2,1,6,1
11,108,102,10.00516622,-1,1,0,2,1,6,1
11,109,48,2.57973209,1,1,0,2,2,6.5,1
11,110,26,1.474299169,1,1,0,0,1,6.5,1
11,111,128,10.00092795,-1,1,0,2,1,6,1
11,112,72,10.0019033,-1,1,0,2,1,7,1
11,113,25,2.285963157,1,1,1,0,1,6.5,1
11,114,111,2.009751334,1,1,1,0,2,6,1
11,115,4,1.653466157,1,1,0,0,1,6.5,1
11,116,63,1.716221483,1,1,1,0,1,7,1
11,117,94,2.266058699,1,1,0,0,1,7,1
11,118,84,10.00295411,-1,1,0,2,1,7,1
11,119,9,2.364755975,1,1,1,2,2,6.5,1
11,120,13,5.48917144,1,1,1,2,2,6.5,1
11,121,31,5.578516154,1,1,1,2,2,6.5,1
11,122,121,1.905167576,1,1,1,0,2,6,1
11,123,144,10.0020651,-1,1,0,2,1,6,1
11,124,106,5.29402341,1,1,0,2,1,6,1
11,125,41,1.464672508,1,1,1,0,1,6.5,1
11,126,70,9.842651332,1,1,0,2,2,7,1
11,127,44,2.549767484,1,1,0,2,2,6.5,1
11,128,115,1.887722762,1,1,1,0,1,6,1
11,129,130,1.698842174,1,1,0,0,2,6,1
11,130,38,1.733871569,0,1,0,0,1,6.5,1
11,131,24,10.00842703,-1,1,0,2,1,6.5,1
11,132,95,6.920297947,1,1,1,2,2,7,1
11,133,120,10.01552733,-1,1,0,2,1,6,1
11,134,100,1.623102779,1,1,0,0,2,6,1
11,135,27,10.01195861,-1,1,1,2,2,6.5,1
11,136,20,1.4209278,1,1,0,0,1,6.5,1
11,137,131,7.210028451,1,1,1,2,1,6,1
11,138,34,6.77358781,1,1,0,0,1,6.5,1
11,139,87,5.383546831,1,1,1,2,2,7,1
11,140,126,1.53605802,1,1,0,0,2,6,1
11,141,52,5.659562136,1,1,0,0,2,7,1
11,142,17,10.00234191,-1,1,1,2,2,6.5,1
11,143,40,8.109994189,1,1,0,2,2,6.5,1
11,144,35,2.851722249,1,1,1,2,2,6.5,1
11,1,1,3.830923046,1,1,1,0,1,6,2
11,2,8,4.947678236,1,1,0,2,2,6,2
11,3,100,2.668777951,1,1,0,2,2,7,2
11,4,35,2.413340578,1,1,1,0,2,6,2
11,5,90,2.356661912,1,1,0,2,1,6.5,2
11,6,2,2.64478254,1,1,0,0,1,6,2
11,7,29,2.143128438,1,1,1,2,1,6,2
11,8,136,3.225998023,1,1,0,0,2,7,2
11,9,44,3.079628699,1,1,0,0,2,6,2
11,10,3,3.249234229,1,1,1,2,2,6,2
11,11,6,4.141303629,1,1,0,0,1,6,2
11,12,65,3.805735848,1,1,1,0,1,6.5,2
11,13,102,5.813483967,1,1,0,0,1,7,2
11,14,16,2.426952538,1,1,0,2,2,6,2
11,15,85,2.202002007,1,1,1,2,1,6.5,2
11,16,22,3.356097414,1,1,0,0,1,6,2
11,17,138,2.468772518,1,1,0,2,1,7,2
11,18,86,3.277179621,1,1,0,2,1,6.5,2
11,19,25,3.162994861,1,1,1,2,1,6,2
11,20,82,4.276389021,1,1,0,2,1,6.5,2
11,21,73,2.82391934,1,1,1,2,1,6.5,2
11,22,77,2.1431061,1,1,1,2,1,6.5,2
11,23,109,2.791568445,1,1,1,0,1,7,2
11,24,43,2.637166338,1,1,1,0,2,6,2
11,25,20,2.503642223,1,1,0,2,2,6,2
11,26,30,2.293282619,1,1,0,2,1,6,2
11,27,105,3.083042858,1,1,1,0,1,7,2
11,28,15,2.673578302,1,1,1,2,2,6,2
11,29,113,2.988347785,1,1,1,0,1,7,2
11,30,117,2.979075521,1,1,1,0,1,7,2
11,31,40,4.696200503,1,1,0,0,2,6,2
11,32,144,4.060707132,1,1,0,0,2,7,2
11,33,94,2.138425593,1,1,0,2,1,6.5,2
11,34,111,2.479393541,1,1,1,2,2,7,2
11,35,13,2.540802222,1,1,1,0,1,6,2
11,36,141,2.897986974,1,1,1,2,1,7,2
11,37,81,2.410727886,1,1,1,2,1,6.5,2
11,38,51,3.644018203,1,1,1,2,2,6.5,2
11,39,124,5.163080592,1,1,0,0,2,7,2
11,40,31,2.931140242,1,1,1,0,2,6,2
11,41,61,2.458398424,1,1,1,0,1,6.5,2
11,42,63,2.029459878,1,1,1,2,2,6.5,2
11,43,46,2.31670357,1,1,0,2,1,6,2
11,44,17,2.977049363,1,1,1,0,1,6,2
11,45,18,4.2190399,1,1,0,0,1,6,2
11,46,34,3.049888383,1,1,0,2,1,6,2
11,47,137,3.039203061,1,1,1,2,1,7,2
11,48,88,2.768930849,1,1,0,0,2,6.5,2
11,49,24,2.893769235,1,1,0,0,2,6,2
11,50,104,2.483347446,1,1,0,2,2,7,2
11,51,133,2.341421963,1,1,1,2,1,7,2
11,52,78,2.205715924,1,1,0,2,1,6.5,2
11,53,122,2.166222464,1,1,0,2,1,7,2
11,54,69,2.721832356,1,1,1,0,1,6.5,2
11,55,68,2.287199318,1,1,0,2,2,6.5,2
11,56,62,2.636142392,1,1,0,0,1,6.5,2
11,57,70,2.680690982,1,1,0,0,1,6.5,2
11,58,123,6.021614556,1,1,1,0,2,7,2
11,59,72,2.896839865,1,1,0,0,2,6.5,2
11,60,50,2.604694695,1,1,0,0,1,6.5,2
11,61,127,2.592485831,1,1,1,0,2,7,2
11,62,41,2.275087656,1,1,1,2,1,6,2
11,63,53,2.307039175,1,1,1,0,1,6.5,2
11,64,19,2.364532289,1,1,1,2,2,6,2
11,65,48,2.59898662,1,1,0,0,2,6,2
11,66,125,2.490206857,1,1,1,2,1,7,2
11,67,116,2.325883765,1,1,0,2,2,7,2
11,68,74,2.59773778,1,1,0,2,1,6.5,2
11,69,14,2.43883176,1,1,0,0,1,6,2
11,70,112,2.521293517,1,1,0,2,2,7,2
11,71,27,4.782749892,1,1,1,0,2,6,2
11,72,28,2.92423555,1,1,0,0,2,6,2
11,73,97,2.487963051,1,1,1,0,1,7,2
11,74,130,2.47348925,1,1,0,2,1,7,2
11,75,39,2.64865675,1,1,1,0,2,6,2
11,76,60,2.379689224,1,1,0,2,2,6.5,2
11,77,21,2.333617092,1,1,1,0,1,6,2
11,78,95,2.282295728,1,1,1,0,2,6.5,2
11,79,33,2.301073906,1,1,1,2,1,6,2
11,80,66,3.004959738,1,1,0,0,1,6.5,2
11,81,99,1.965618118,1,1,1,2,2,7,2
11,82,47,2.142701593,1,1,1,0,2,6,2
11,83,139,2.427216675,1,1,1,0,2,7,2
11,84,98,2.637525867,1,1,0,0,1,7,2
11,85,45,2.286148807,1,1,1,2,1,6,2
11,86,119,2.290366547,1,1,1,0,2,7,2
11,87,36,2.38137306,1,1,0,0,2,6,2
11,88,42,2.30253164,1,1,0,2,1,6,2
11,89,107,2.297081965,1,1,1,2,2,7,2
11,90,71,2.654043937,1,1,1,0,2,6.5,2
11,91,84,2.402466285,1,1,0,0,2,6.5,2
11,92,10,5.091028549,1,1,0,0,1,6,2
11,93,49,2.589499121,1,1,1,0,1,6.5,2
11,94,54,2.826303516,1,1,0,0,1,6.5,2
11,95,37,2.227836114,1,1,1,2,1,6,2
11,96,38,2.321693194,1,1,0,2,1,6,2
11,97,140,3.25119488,1,1,0,0,2,7,2
11,98,92,2.577822455,1,1,0,0,2,6.5,2
11,99,135,3.035939535,1,1,1,0,2,7,2
11,100,59,2.593481099,1,1,1,2,2,6.5,2
11,101,80,4.265393375,1,1,0,0,2,6.5,2
11,102,32,4.018495929,1,1,0,0,2,6,2
11,103,83,2.555466806,1,1,1,0,2,6.5,2
11,104,9,3.005093467,1,1,1,0,1,6,2
11,105,11,2.219102689,1,1,1,2,2,6,2
11,106,129,2.130881538,1,1,1,2,1,7,2
11,107,56,2.425707623,1,1,0,2,2,6.5,2
11,108,110,6.011048775,1,1,0,0,1,7,2
11,109,76,2.611171032,1,1,0,0,2,6.5,2
11,110,132,2.878215943,1,1,0,0,2,7,2
11,111,23,2.952555261,1,1,1,0,2,6,2
11,112,75,2.438017916,1,1,1,0,2,6.5,2
11,113,128,2.871138883,1,1,0,0,2,7,2
11,114,87,2.599830952,1,1,1,0,2,6.5,2
11,115,96,2.788421744,1,1,0,0,2,6.5,2
11,116,121,2.229100048,1,1,1,2,1,7,2
11,117,143,2.835852898,1,1,1,0,2,7,2
11,118,134,2.259927098,1,1,0,2,1,7,2
11,119,91,4.371195484,1,1,1,0,2,6.5,2
11,120,115,2.357110492,1,1,1,2,2,7,2
11,121,52,2.800268061,1,1,0,2,2,6.5,2
11,122,131,3.488898247,1,1,1,0,2,7,2
11,123,114,2.623302014,1,1,0,0,1,7,2
11,124,118,2.50340465,1,1,0,0,1,7,2
11,125,89,2.085414355,1,1,1,2,1,6.5,2
11,126,120,2.668744746,1,1,0,0,2,7,2
11,127,101,3.270197046,1,1,1,0,1,7,2
11,128,67,2.51130461,1,1,1,2,2,6.5,2
11,129,57,2.639813746,1,1,1,0,1,6.5,2
11,130,103,2.408683013,1,1,1,2,2,7,2
11,131,126,2.339071596,1,1,0,2,1,7,2
11,132,106,5.190603364,1,1,0,0,1,7,2
11,133,64,2.341047039,1,1,0,2,2,6.5,2
11,134,93,2.162187356,1,1,1,2,1,6.5,2
11,135,5,2.358991751,1,1,1,0,1,6,2
11,136,58,4.138778781,1,1,0,0,1,6.5,2
11,137,12,3.988064027,1,1,0,2,2,6,2
11,138,79,2.568940811,1,1,1,0,2,6.5,2
11,139,26,2.597637861,1,1,0,2,1,6,2
11,140,4,2.391693722,1,1,0,2,2,6,2
11,141,7,2.195540764,1,1,1,2,2,6,2
11,142,142,2.505514728,1,1,0,2,1,7,2
11,143,108,2.401188164,1,1,0,2,2,7,2
11,144,55,2.225882708,1,1,1,2,2,6.5,2
12,1,118,10.01544794,-1,1,0,0,1,7,1
12,2,24,10.01085075,-1,1,0,0,2,6,1
12,3,51,6.57013471,1,1,1,2,2,6.5,1
12,4,57,10.00123526,-1,1,1,0,1,6.5,1
12,5,130,6.089751938,1,1,0,2,1,7,1
12,6,60,7.350364585,1,1,0,2,2,6.5,1
12,7,79,10.01130869,-1,1,1,0,2,6.5,1
12,8,46,1.74713185,1,1,0,2,1,6,1
12,9,86,6.460972477,1,1,0,2,1,6.5,1
12,10,67,10.00256741,-1,1,1,2,2,6.5,1
12,11,92,10.00618714,-1,1,0,0,2,6.5,1
12,12,25,2.600475145,1,1,1,2,1,6,1
12,13,96,10.00759749,-1,1,0,0,2,6.5,1
12,14,52,10.01046164,-1,1,0,2,2,6.5,1
12,15,142,4.996568936,1,1,0,2,1,7,1
12,16,12,10.01576913,-1,1,0,2,2,6,1
12,17,20,9.777990597,1,1,0,2,2,6,1
12,18,13,4.201480375,1,1,1,0,1,6,1
12,19,106,8.830827654,1,1,0,0,1,7,1
12,20,87,10.00842884,-1,1,1,0,2,6.5,1
12,21,28,10.01378161,-1,1,0,0,2,6,1
12,22,31,10.01022225,-1,1,1,0,2,6,1
12,23,102,10.00374471,-1,1,0,0,1,7,1
12,24,21,10.00577781,-1,1,1,0,1,6,1
12,25,71,4.731054812,0,1,1,0,2,6.5,1
12,26,16,10.01426943,-1,1,0,2,2,6,1
12,27,95,10.00054699,-1,1,1,0,2,6.5,1
12,28,62,10.00839503,-1,1,0,0,1,6.5,1
12,29,143,8.1913191,1,1,1,0,2,7,1
12,30,32,10.00962636,-1,1,0,0,2,6,1
12,31,50,3.642214223,1,1,0,0,1,6.5,1
12,32,23,10.0159421,-1,1,1,0,2,6,1
12,33,133,10.01576098,-1,1,1,2,1,7,1
12,34,94,6.390105277,1,1,0,2,1,6.5,1
12,35,19,10.00160716,-1,1,1,2,2,6,1
12,36,33,1.713443969,1,1,1,2,1,6,1
12,37,11,10.00737712,-1,1,1,2,2,6,1
12,38,38,1.707949316,1,1,0,2,1,6,1
12,39,30,2.457156528,1,1,0,2,1,6,1
12,40,101,10.00266371,-1,1,1,0,1,7,1
12,41,128,10.01484329,-1,1,0,0,2,7,1
12,42,69,10.00877025,-1,1,1,0,1,6.5,1
12,43,131,10.00379271,-1,1,1,0,2,7,1
12,44,136,10.00551307,-1,1,0,0,2,7,1
12,45,29,1.489785445,1,1,1,2,1,6,1
12,46,22,1.956473545,1,1,0,0,1,6,1
12,47,65,3.562197922,1,1,1,0,1,6.5,1
12,48,10,5.306903635,1,1,0,0,1,6,1
12,49,99,5.413322768,1,1,1,2,2,7,1
12,50,82,10.01281502,-1,1,0,2,1,6.5,1
12,51,75,10.01196737,-1,1,1,0,2,6.5,1
12,52,138,10.01111851,-1,1,0,2,1,7,1
12,53,139,9.301454867,1,1,1,0,2,7,1
12,54,43,10.01193658,-1,1,1,0,2,6,1
12,55,4,10.00413563,-1,1,0,2,2,6,1
12,56,90,10.00863049,-1,1,0,2,1,6.5,1
12,57,36,10.01427909,-1,1,0,0,2,6,1
12,58,34,3.191130431,1,1,0,2,1,6,1
12,59,85,7.959353695,1,1,1,2,1,6.5,1
12,60,45,1.44069702,1,1,1,2,1,6,1
12,61,39,10.01052775,-1,1,1,0,2,6,1
12,62,107,1.822152188,1,1,1,2,2,7,1
12,63,59,10.00938064,-1,1,1,2,2,6.5,1
12,64,8,9.721181221,0,1,0,2,2,6,1
12,65,14,4.267061212,1,1,0,0,1,6,1
12,66,114,10.01258771,-1,1,0,0,1,7,1
12,67,127,10.00370063,-1,1,1,0,2,7,1
12,68,91,10.0083736,-1,1,1,0,2,6.5,1
12,69,26,2.218985261,1,1,0,2,1,6,1
12,70,104,1.687794003,1,1,0,2,2,7,1
12,71,134,10.01529308,-1,1,0,2,1,7,1
12,72,5,1.538313599,1,1,1,0,1,6,1
12,73,6,1.375626042,1,1,0,0,1,6,1
12,74,100,3.752828756,1,1,0,2,2,7,1
12,75,120,10.01153871,-1,1,0,0,2,7,1
12,76,41,1.200286475,1,1,1,2,1,6,1
12,77,53,4.906298384,1,1,1,0,1,6.5,1
12,78,124,10.00920797,-1,1,0,0,2,7,1
12,79,98,10.00445259,-1,1,0,0,1,7,1
12,80,93,4.939729071,1,1,1,2,1,6.5,1
12,81,70,7.020194858,1,1,0,0,1,6.5,1
12,82,112,1.365330134,1,1,0,2,2,7,1
12,83,125,4.395057167,1,1,1,2,1,7,1
12,84,140,10.00516803,-1,1,0,0,2,7,1
12,85,113,7.62577162,1,1,1,0,1,7,1
12,86,80,10.01317636,-1,1,0,0,2,6.5,1
12,87,144,1.797405722,1,1,0,0,2,7,1
12,88,44,10.01414718,-1,1,0,0,2,6,1
12,89,49,10.00091346,-1,1,1,0,1,6.5,1
12,90,58,5.48870505,1,1,0,0,1,6.5,1
12,91,110,3.965408922,1,1,0,0,1,7,1
12,92,17,2.543687805,0,1,1,0,1,6,1
12,93,37,1.366778812,1,1,1,2,1,6,1
12,94,129,2.260493106,1,1,1,2,1,7,1
12,95,66,7.705817202,1,1,0,0,1,6.5,1
12,96,105,7.153509777,1,1,1,0,1,7,1
12,97,132,10.01375414,-1,1,0,0,2,7,1
12,98,55,8.687925317,1,1,1,2,2,6.5,1
12,99,18,8.611125148,1,1,0,0,1,6,1
12,100,7,7.201600821,0,1,1,2,2,6,1
12,101,73,1.625450127,1,1,1,2,1,6.5,1
12,102,40,10.00294234,-1,1,0,0,2,6,1
12,103,84,10.00370667,-1,1,0,0,2,6.5,1
12,104,15,10.00318685,-1,1,1,2,2,6,1
12,105,48,10.01422898,-1,1,0,0,2,6,1
12,106,97,10.00275336,-1,1,1,0,1,7,1
12,107,56,10.0067287,-1,1,0,2,2,6.5,1
12,108,89,9.447171244,1,1,1,2,1,6.5,1
12,109,111,1.649628774,1,1,1,2,2,7,1
12,110,54,2.399130612,0,1,0,0,1,6.5,1
12,111,141,3.758670259,0,1,1,2,1,7,1
12,112,27,10.00788306,-1,1,1,0,2,6,1
12,113,47,10.01165886,-1,1,1,0,2,6,1
12,114,116,1.512471643,1,1,0,2,2,7,1
12,115,1,1.460478918,1,1,1,0,1,6,1
12,116,2,1.704379089,1,1,0,0,1,6,1
12,117,117,10.00465364,-1,1,1,0,1,7,1
12,118,72,10.01632246,-1,1,0,0,2,6.5,1
12,119,74,2.486059453,0,1,0,2,1,6.5,1
12,120,76,5.179585682,0,1,0,0,2,6.5,1
12,121,3,10.0007417,-1,1,1,2,2,6,1
12,122,42,1.811216011,1,1,0,2,1,6,1
12,123,135,10.00596255,-1,1,1,0,2,7,1
12,124,9,1.3436386,1,1,1,0,1,6,1
12,125,122,10.01503951,-1,1,0,2,1,7,1
12,126,119,10.013893,-1,1,1,0,2,7,1
12,127,83,8.45944169,0,1,1,0,2,6.5,1
12,128,109,4.752242221,0,1,1,0,1,7,1
12,129,78,1.672158905,1,1,0,2,1,6.5,1
12,130,64,8.933653316,0,1,0,2,2,6.5,1
12,131,121,9.747742534,1,1,1,2,1,7,1
12,132,77,1.573630072,1,1,1,2,1,6.5,1
12,133,108,7.419878195,1,1,0,2,2,7,1
12,134,88,10.01552582,-1,1,0,0,2,6.5,1
12,135,137,9.647208978,1,1,1,2,1,7,1
12,136,68,7.539188722,1,1,0,2,2,6.5,1
12,137,81,4.394972945,1,1,1,2,1,6.5,1
12,138,63,5.364129291,0,1,1,2,2,6.5,1
12,139,115,1.239678206,1,1,1,2,2,7,1
12,140,35,10.00577117,-1,1,1,0,2,6,1
12,141,61,8.590449712,0,1,1,0,1,6.5,1
12,142,126,4.752381987,1,1,0,2,1,7,1
12,143,123,4.936653309,1,1,1,0,2,7,1
12,144,103,1.340278778,1,1,1,2,2,7,1
12,1,25,10.00330217,-1,1,1,0,1,6.5,2
12,2,76,2.721881259,1,1,0,2,1,7,2
12,3,22,2.5002501,1,1,0,2,2,6.5,2
12,4,1,2.529070615,1,1,1,2,2,6.5,2
12,5,98,2.407199318,1,1,0,2,1,6,2
12,6,132,2.0917144,1,1,0,2,1,6,2
12,7,99,2.452426513,1,1,1,0,2,6,2
12,8,5,2.339995321,1,1,1,2,2,6.5,2
12,9,91,2.285374509,1,1,1,2,2,7,2
12,10,6,2.210014263,1,1,0,2,2,6.5,2
12,11,127,2.797921317,1,1,1,2,1,6,2
12,12,40,2.144282189,1,1,0,2,2,6.5,2
12,13,19,4.253563359,0,1,1,0,1,6.5,2
12,14,82,3.156798962,1,1,0,0,2,7,2
12,15,95,2.225056488,1,1,1,2,2,7,2
12,16,30,3.040171463,1,1,0,0,1,6.5,2
12,17,14,2.088591546,1,1,0,2,2,6.5,2
12,18,118,2.208786253,1,1,0,2,2,6,2
12,19,129,2.644672659,1,1,1,0,2,6,2
12,20,20,3.604295622,0,1,0,0,1,6.5,2
12,21,66,2.170917159,1,1,0,2,2,7,2
12,22,27,2.332186828,1,1,1,2,2,6.5,2
12,23,80,2.240233648,1,1,0,2,1,7,2
12,24,44,2.212010535,1,1,0,2,2,6.5,2
12,25,108,2.750081732,1,1,0,0,2,6,2
12,26,104,6.208357596,1,1,0,0,2,6,2
12,27,13,2.331519995,1,1,1,2,2,6.5,2
12,28,130,10.00445773,-1,1,0,0,2,6,2
12,29,131,2.5228237,1,1,1,2,1,6,2
12,30,77,3.439616322,1,1,1,0,2,7,2
12,31,120,2.387548733,1,1,0,2,1,6,2
12,32,142,2.595841125,1,1,0,0,2,6,2
12,33,116,3.538603696,1,1,0,0,1,6,2
12,34,140,2.220226856,1,1,0,2,1,6,2
12,35,54,2.362763929,1,1,0,2,1,7,2
12,36,73,8.155341831,0,1,1,0,2,7,2
12,37,81,3.028078517,1,1,1,0,2,7,2
12,38,134,2.958731539,1,1,0,0,2,6,2
12,39,4,2.692810493,1,1,0,0,1,6.5,2
12,40,122,2.691094055,1,1,0,0,2,6,2
12,41,34,9.43024927,0,1,0,0,1,6.5,2
12,42,32,2.291594557,1,1,0,2,2,6.5,2
12,43,39,2.15968696,1,1,1,2,2,6.5,2
12,44,11,2.177499151,0,1,1,0,1,6.5,2
12,45,117,1.982825662,1,1,1,2,2,6,2
12,46,55,3.241764133,1,1,1,0,1,7,2
12,47,138,2.324962455,1,1,0,0,2,6,2
12,48,68,10.01183424,-1,1,0,0,1,7,2
12,49,110,2.928491023,1,1,0,2,1,6,2
12,50,101,2.044070728,0,1,1,2,1,6,2
12,51,135,1.873502532,0,1,1,2,1,6,2
12,52,143,2.124939815,1,1,1,2,1,6,2
12,53,133,2.390845163,1,1,1,0,2,6,2
12,54,49,2.162884678,1,1,1,2,1,7,2
12,55,70,2.043045877,1,1,0,2,2,7,2
12,56,103,2.553882285,1,1,1,0,2,6,2
12,57,15,3.725889198,1,1,1,0,1,6.5,2
12,58,45,3.392944071,1,1,1,0,1,6.5,2
12,59,69,2.2751109,1,1,1,2,2,7,2
12,60,28,2.036740097,1,1,0,2,2,6.5,2
12,61,88,2.327827209,1,1,0,2,2,7,2
12,62,61,2.192162829,1,1,1,2,2,7,2
12,63,102,2.12473575,1,1,0,2,1,6,2
12,64,106,2.326541843,1,1,0,2,1,6,2
12,65,97,2.180688115,1,1,1,2,1,6,2
12,66,63,8.288247413,1,1,1,0,1,7,2
12,67,56,8.526220652,1,1,0,0,1,7,2
12,68,109,2.441156165,1,1,1,2,1,6,2
12,69,121,2.791944577,1,1,1,0,2,6,2
12,70,100,3.705794562,1,1,0,0,2,6,2
12,71,24,2.422547639,1,1,0,2,1,6.5,2
12,72,144,2.421954161,1,1,0,2,1,6,2
12,73,38,4.529761899,1,1,0,0,1,6.5,2
12,74,59,9.482163508,1,1,1,0,1,7,2
12,75,93,5.578002672,1,1,1,0,1,7,2
12,76,79,2.474547307,1,1,1,2,1,7,2
12,77,67,8.355078298,1,1,1,0,1,7,2
12,78,75,2.417946524,1,1,1,2,1,7,2
12,79,111,3.111975367,1,1,1,0,2,6,2
12,80,42,2.680313342,1,1,0,0,1,6.5,2
12,81,17,2.34090516,1,1,1,2,2,6.5,2
12,82,139,2.060159237,1,1,1,2,1,6,2
12,83,36,2.186033945,1,1,0,2,2,6.5,2
12,84,57,2.310603062,1,1,1,2,2,7,2
12,85,125,2.502524093,1,1,1,0,2,6,2
12,86,96,2.300973986,1,1,0,2,2,7,2
12,87,31,2.405661588,1,1,1,2,2,6.5,2
12,88,137,2.768644675,1,1,1,0,2,6,2
12,89,26,2.631412076,1,1,0,0,1,6.5,2
12,90,71,2.320684945,1,1,1,2,1,7,2
12,91,89,5.729524629,1,1,1,0,1,7,2
12,92,10,2.285741583,1,1,0,2,2,6.5,2
12,93,64,7.687489416,1,1,0,0,1,7,2
12,94,47,2.168656146,1,1,1,2,2,6.5,2
12,95,123,2.244565797,1,1,1,2,1,6,2
12,96,2,2.107688499,1,1,0,2,2,6.5,2
12,97,105,1.96618473,1,1,1,2,1,6,2
12,98,124,2.166155147,1,1,0,2,1,6,2
12,99,35,2.001848053,1,1,1,2,2,6.5,2
12,100,107,2.586036964,1,1,1,0,2,6,2
12,101,41,3.277047703,1,1,1,0,1,6.5,2
12,102,128,2.114913174,1,1,0,2,1,6,2
12,103,48,2.097377799,1,1,0,2,2,6.5,2
12,104,12,3.414897628,0,1,0,0,1,6.5,2
12,105,78,2.75406703,1,1,0,0,2,7,2
12,106,112,2.529785445,1,1,0,0,2,6,2
12,107,86,2.980758149,1,1,0,0,1,7,2
12,108,72,2.015482352,1,1,0,2,1,7,2
12,109,136,2.046266839,1,1,0,2,1,6,2
12,110,23,1.872228335,1,1,1,2,1,6.5,2
12,111,94,2.826860166,1,1,0,0,1,7,2
12,112,60,7.737790758,1,1,0,0,1,7,2
12,113,52,2.550776336,1,1,0,0,2,7,2
12,114,119,2.111644517,1,1,1,2,1,6,2
12,115,8,4.468954546,1,1,0,0,1,6.5,2
12,116,50,1.990661625,1,1,0,2,1,7,2
12,117,141,2.638772593,1,1,1,0,2,6,2
12,118,87,2.123847042,1,1,1,2,2,7,2
12,119,7,5.726318459,1,1,1,0,1,6.5,2
12,120,113,2.921785868,1,1,1,2,1,6,2
12,121,18,2.726157863,1,1,0,2,2,6.5,2
12,122,51,2.84840016,0,1,1,0,2,7,2
12,123,58,2.208700823,1,1,0,2,2,7,2
12,124,114,2.098037689,1,1,0,2,1,6,2
12,125,29,2.658371558,1,1,1,0,1,6.5,2
12,126,43,1.991799679,1,1,1,2,2,6.5,2
12,127,33,2.588567547,1,1,1,0,1,6.5,2
12,128,37,2.491648592,1,1,1,0,1,6.5,2
12,129,126,2.500444505,1,1,0,0,2,6,2
12,130,16,3.090735131,1,1,0,0,1,6.5,2
12,131,21,2.275269986,1,1,1,2,2,6.5,2
12,132,115,4.378489287,1,1,1,0,1,6,2
12,133,46,3.31170791,1,1,0,0,1,6.5,2
12,134,74,2.376802735,0,1,0,0,2,7,2
12,135,62,2.204848951,1,1,0,2,2,7,2
12,136,3,3.005120635,1,1,1,0,1,6.5,2
12,137,65,2.103425178,1,1,1,2,2,7,2
12,138,85,2.686464866,1,1,1,0,1,7,2
12,139,9,2.145893877,1,1,1,2,2,6.5,2
12,140,53,2.079539043,1,1,1,2,1,7,2
12,141,92,2.365920291,1,1,0,2,2,7,2
12,142,84,2.202804984,1,1,0,2,1,7,2
12,143,83,2.152008875,1,1,1,2,1,7,2
12,144,90,2.852711479,1,1,0,0,1,7,2
13,1,96,1.974680816,1,1,0,2,1,7,1
13,2,132,2.907870881,1,1,0,2,1,6,1
13,3,122,10.0022411,-1,1,0,0,1,6,1
13,4,91,1.655244145,1,1,1,2,1,7,1
13,5,46,6.730921862,1,1,0,0,1,6.5,1
13,6,82,10.00157305,-1,1,0,0,1,7,1
13,7,56,5.279976007,1,1,0,0,1,7,1
13,8,28,1.905266332,1,1,0,2,1,6.5,1
13,9,102,1.57821042,1,1,0,2,1,6,1
13,10,94,4.116960176,1,1,0,0,1,7,1
13,11,51,8.867583994,1,1,1,0,1,7,1
13,12,121,7.812499057,1,1,1,0,1,6,1
13,13,62,1.371433462,1,1,0,2,1,7,1
13,14,16,10.00006551,-1,1,0,0,1,6.5,1
13,15,25,8.033865171,1,1,1,0,1,6.5,1
13,16,80,1.623311556,1,1,0,2,1,7,1
13,17,93,1.722422967,1,1,1,0,1,7,1
13,18,69,1.309879112,1,1,1,2,1,7,1
13,19,142,10.01593098,-1,1,0,0,1,6,1
13,20,66,1.435652734,1,1,0,2,1,7,1
13,21,20,7.739351326,1,1,0,0,1,6.5,1
13,22,18,1.911828419,1,1,0,2,1,6.5,1
13,23,104,8.977909635,1,1,0,0,1,6,1
13,24,92,1.263035573,1,1,0,2,1,7,1
13,25,109,1.467355296,1,1,1,2,1,6,1
13,26,50,1.215253515,1,1,0,2,1,7,1
13,27,24,1.554566624,1,1,0,2,1,6.5,1
13,28,124,2.351379825,1,1,0,2,1,6,1
13,29,8,8.917624958,1,1,0,0,1,6.5,1
13,30,107,1.831353659,1,1,1,0,1,6,1
13,31,101,1.428304574,1,1,1,2,1,6,1
13,32,4,8.701747777,1,1,0,0,1,6.5,1
13,33,13,1.326711476,1,1,1,2,1,6.5,1
13,34,55,7.445374813,1,1,1,0,1,7,1
13,35,5,1.266373972,1,1,1,2,1,6.5,1
13,36,90,8.213366515,1,1,0,0,1,7,1
13,37,106,1.321919566,1,1,0,2,1,6,1
13,38,15,2.487018009,1,1,1,0,1,6.5,1
13,39,138,10.01446539,-1,1,0,0,1,6,1
13,40,52,2.482219155,1,1,0,0,1,7,1
13,41,30,7.903159268,1,1,0,0,1,6.5,1
13,42,40,1.338615182,1,1,0,2,1,6.5,1
13,43,6,1.520098314,1,1,0,2,1,6.5,1
13,44,45,4.5510145,1,1,1,0,1,6.5,1
13,45,64,10.00114651,-1,1,0,0,1,7,1
13,46,12,3.126334499,1,1,0,0,1,6.5,1
13,47,27,1.319130272,1,1,1,2,1,6.5,1
13,48,100,1.904311814,1,1,0,0,1,6,1
13,49,72,1.270718811,1,1,0,2,1,7,1
13,50,32,1.416458224,1,1,0,2,1,6.5,1
13,51,136,1.573448998,1,1,0,2,1,6,1
13,52,73,9.729944099,1,1,1,0,1,7,1
13,53,134,2.05780782,1,1,0,0,1,6,1
13,54,99,3.118765671,1,1,1,0,1,6,1
13,55,103,1.619177122,1,1,1,0,1,6,1
13,56,75,1.401463957,1,1,1,2,1,7,1
13,57,89,6.108064924,1,1,1,0,1,7,1
13,58,60,2.575105368,1,1,0,0,1,7,1
13,59,139,1.608303101,1,1,1,2,1,6,1
13,60,1,1.781365824,1,1,1,2,1,6.5,1
13,61,7,2.230935748,1,1,1,0,1,6.5,1
13,62,3,3.622008074,1,1,1,0,1,6.5,1
13,63,123,1.334691454,1,1,1,2,1,6,1
13,64,83,1.355731003,1,1,1,2,1,7,1
13,65,57,1.14687596,1,1,1,2,1,7,1
13,66,58,1.052384092,1,1,0,2,1,7,1
13,67,48,1.335859094,1,1,0,2,1,6.5,1
13,68,97,1.401632099,1,1,1,2,1,6,1
13,69,14,1.15471436,1,1,0,2,1,6.5,1
13,70,119,1.236286121,1,1,1,2,1,6,1
13,71,131,1.203433428,1,1,1,2,1,6,1
13,72,47,1.191319318,1,1,1,2,1,6.5,1
13,73,79,1.113374243,1,1,1,2,1,7,1
13,74,65,1.12090896,1,1,1,2,1,7,1
13,75,42,10.00243067,-1,1,0,0,1,6.5,1
13,76,43,1.355484978,1,1,1,2,1,6.5,1
13,77,112,8.817316928,1,1,0,0,1,6,1
13,78,128,1.68083773,1,1,0,2,1,6,1
13,79,71,1.131354323,1,1,1,2,1,7,1
13,80,31,1.150360465,1,1,1,2,1,6.5,1
13,81,76,1.057476667,1,1,0,2,1,7,1
13,82,34,10.01588871,-1,1,0,0,1,6.5,1
13,83,87,1.221390566,1,1,1,2,1,7,1
13,84,126,10.01560314,-1,1,0,0,1,6,1
13,85,59,4.769619696,1,1,1,0,1,7,1
13,86,129,10.00517257,-1,1,1,0,1,6,1
13,87,23,1.656495403,1,1,1,2,1,6.5,1
13,88,125,10.01636567,-1,1,1,0,1,6,1
13,89,118,1.274495829,1,1,0,2,1,6,1
13,90,53,1.084281965,1,1,1,2,1,7,1
13,91,9,1.378593858,1,1,1,2,1,6.5,1
13,92,26,9.25690939,1,1,0,0,1,6.5,1
13,93,117,1.469438815,1,1,1,2,1,6,1
13,94,88,1.136310452,1,1,0,2,1,7,1
13,95,105,1.300687422,1,1,1,2,1,6,1
13,96,38,4.95351116,0,1,0,0,1,6.5,1
13,97,29,7.491313039,1,1,1,0,1,6.5,1
13,98,77,3.562721385,1,1,1,0,1,7,1
13,99,108,2.679684882,1,1,0,0,1,6,1
13,100,130,10.00601117,-1,1,0,0,1,6,1
13,101,10,1.550104659,1,1,0,2,1,6.5,1
13,102,70,1.13358123,1,1,0,2,1,7,1
13,103,74,7.569877253,1,1,0,0,1,7,1
13,104,114,1.381362625,1,1,0,2,1,6,1
13,105,17,1.496391728,1,1,1,2,1,6.5,1
13,106,21,1.290307263,1,1,1,2,1,6.5,1
13,107,49,1.35158872,1,1,1,2,1,7,1
13,108,86,2.375966367,1,1,0,0,1,7,1
13,109,120,1.59494377,1,1,0,2,1,6,1
13,110,127,1.167226639,1,1,1,2,1,6,1
13,111,67,5.836035085,1,1,1,0,1,7,1
13,112,19,1.859012952,0,1,1,0,1,6.5,1
13,113,35,1.133951325,1,1,1,2,1,6.5,1
13,114,41,2.634507071,1,1,1,0,1,6.5,1
13,115,68,3.720508195,1,1,0,0,1,7,1
13,116,144,1.471878843,1,1,0,2,1,6,1
13,117,133,1.587679832,1,1,1,0,1,6,1
13,118,33,2.483587238,1,1,1,0,1,6.5,1
13,119,135,1.550336798,1,1,1,2,1,6,1
13,120,61,1.133724619,1,1,1,2,1,7,1
13,121,141,10.00083286,-1,1,1,0,1,6,1
13,122,85,2.519869495,1,1,1,0,1,7,1
13,123,111,5.070205387,1,1,1,0,1,6,1
13,124,54,1.333790367,1,1,0,2,1,7,1
13,125,143,1.210953353,1,1,1,2,1,6,1
13,126,113,1.321435364,1,1,1,2,1,6,1
13,127,78,1.603097928,1,1,0,0,1,7,1
13,128,22,1.30369829,1,1,0,2,1,6.5,1
13,129,2,1.291228877,1,1,0,2,1,6.5,1
13,130,11,2.099873637,1,1,1,0,1,6.5,1
13,131,95,1.205500947,1,1,1,2,1,7,1
13,132,110,1.674357149,1,1,0,2,1,6,1
13,133,36,1.252927702,1,1,0,2,1,6.5,1
13,134,37,4.717723127,1,1,1,0,1,6.5,1
13,135,98,1.93156841,1,1,0,2,1,6,1
13,136,39,1.247253119,1,1,1,2,1,6.5,1
13,137,115,2.603180339,1,1,1,0,1,6,1
13,138,116,1.416091752,1,1,0,0,1,6,1
13,139,140,1.276787639,1,1,0,2,1,6,1
13,140,137,1.425178391,1,1,1,0,1,6,1
13,141,81,2.45794656,1,1,1,0,1,7,1
13,142,84,1.207252104,1,1,0,2,1,7,1
13,143,44,1.256442092,1,1,0,2,1,6.5,1
13,144,63,3.658041589,1,1,1,0,1,7,1
13,1,130,2.273771941,1,1,0,2,1,7,2
13,2,54,2.767414825,1,1,0,0,1,6.5,2
13,3,120,2.468749943,1,1,0,0,1,7,2
13,4,25,2.353512247,1,1,1,2,1,6,2
13,5,16,2.250168897,1,1,0,2,1,6,2
13,6,80,2.691081141,1,1,0,0,1,6.5,2
13,7,17,2.500760113,1,1,1,0,1,6,2
13,8,86,2.217433934,1,1,0,2,1,6.5,2
13,9,125,2.179012312,1,1,1,2,1,7,2
13,10,49,2.40384663,1,1,1,0,1,6.5,2
13,11,26,2.356477532,1,1,0,2,1,6,2
13,12,68,2.290988587,1,1,0,2,1,6.5,2
13,13,128,3.253557407,1,1,0,0,1,7,2
13,14,53,2.434543658,1,1,1,0,1,6.5,2
13,15,117,2.394193076,1,1,1,0,1,7,2
13,16,70,2.335952976,1,1,0,0,1,6.5,2
13,17,73,2.23901806,1,1,1,2,1,6.5,2
13,18,119,2.548903512,1,1,1,0,1,7,2
13,19,98,2.347422288,1,1,0,0,1,7,2
13,20,83,2.329234218,1,1,1,0,1,6.5,2
13,21,6,2.610280058,1,1,0,0,1,6,2
13,22,33,2.094055362,1,1,1,2,1,6,2
13,23,141,2.057231245,1,1,1,2,1,7,2
13,24,105,2.174681963,1,1,1,0,1,7,2
13,25,133,2.166657309,1,1,1,2,1,7,2
13,26,52,2.694262265,1,1,0,2,1,6.5,2
13,27,36,2.760367028,1,1,0,0,1,6,2
13,28,89,2.022727012,1,1,1,2,1,6.5,2
13,29,48,2.44844998,1,1,0,0,1,6,2
13,30,37,2.184584259,1,1,1,2,1,6,2
13,31,20,2.194266189,1,1,0,2,1,6,2
13,32,30,2.254052778,1,1,0,2,1,6,2
13,33,101,2.268318629,1,1,1,0,1,7,2
13,34,60,2.362023518,1,1,0,2,1,6.5,2
13,35,31,2.523422222,1,1,1,0,1,6,2
13,36,35,2.372882144,1,1,1,0,1,6,2
13,37,129,1.995848963,1,1,1,2,1,7,2
13,38,21,2.472214826,1,1,1,0,1,6,2
13,39,63,2.132807835,1,1,1,2,1,6.5,2
13,40,108,1.561352397,1,1,0,2,1,7,2
13,41,88,2.751156923,1,1,0,0,1,6.5,2
13,42,23,2.435517194,1,1,1,0,1,6,2
13,43,81,2.180291041,0,1,1,2,1,6.5,2
13,44,110,2.512536428,1,1,0,0,1,7,2
13,45,41,2.201569672,1,1,1,2,1,6,2
13,46,66,2.772806555,1,1,0,0,1,6.5,2
13,47,144,2.541369097,1,1,0,0,1,7,2
13,48,131,2.376748214,1,1,1,0,1,7,2
13,49,76,2.793276473,1,1,0,0,1,6.5,2
13,50,115,2.154966121,1,1,1,2,1,7,2
13,51,12,2.117869112,1,1,0,2,1,6,2
13,52,72,2.61542214,1,1,0,0,1,6.5,2
13,53,99,2.114508073,1,1,1,2,1,7,2
13,54,93,2.235593628,1,1,1,2,1,6.5,2
13,55,24,2.641134965,1,1,0,0,1,6,2
13,56,102,2.452970508,1,1,0,0,1,7,2
13,57,32,2.562084738,1,1,0,0,1,6,2
13,58,47,2.599599839,1,1,1,0,1,6,2
13,59,136,2.665634266,1,1,0,0,1,7,2
13,60,61,2.321583281,1,1,1,0,1,6.5,2
13,61,121,2.021114112,1,1,1,2,1,7,2
13,62,59,2.16341732,1,1,1,2,1,6.5,2
13,63,135,2.351988097,1,1,1,0,1,7,2
13,64,9,2.368103515,1,1,1,0,1,6,2
13,65,114,2.666606594,1,1,0,0,1,7,2
13,66,51,2.19488563,1,1,1,2,1,6.5,2
13,67,13,2.267999853,1,1,1,0,1,6,2
13,68,50,2.418100708,1,1,0,0,1,6.5,2
13,69,4,2.188491082,1,1,0,2,1,6,2
13,70,44,2.68155226,1,1,0,0,1,6,2
13,71,34,2.19212773,1,1,0,2,1,6,2
13,72,79,2.215226346,1,1,1,0,1,6.5,2
13,73,112,2.150420236,1,1,0,2,1,7,2
13,74,85,2.290331413,1,1,1,2,1,6.5,2
13,75,90,2.678516337,1,1,0,2,1,6.5,2
13,76,2,2.46699305,1,1,0,0,1,6,2
13,77,1,2.266446421,1,1,1,0,1,6,2
13,78,14,2.512629405,1,1,0,0,1,6,2
13,79,40,2.303370458,1,1,0,0,1,6,2
13,80,87,2.198604991,1,1,1,0,1,6.5,2
13,81,134,2.304610848,1,1,0,2,1,7,2
13,82,78,2.234801516,1,1,0,2,1,6.5,2
13,83,113,2.582638274,1,1,1,0,1,7,2
13,84,43,2.205251299,1,1,1,0,1,6,2
13,85,92,2.537730336,1,1,0,0,1,6.5,2
13,86,91,2.303738137,1,1,1,0,1,6.5,2
13,87,5,2.621533532,1,1,1,0,1,6,2
13,88,137,2.022807008,1,1,1,2,1,7,2
13,89,46,2.02514108,1,1,0,2,1,6,2
13,90,10,2.434433474,1,1,0,0,1,6,2
13,91,97,2.38520364,1,1,1,0,1,7,2
13,92,107,2.170051554,1,1,1,2,1,7,2
13,93,100,2.086832781,1,1,0,2,1,7,2
13,94,3,2.031826631,1,1,1,2,1,6,2
13,95,84,2.584036543,1,1,0,0,1,6.5,2
13,96,106,2.391410423,1,1,0,0,1,7,2
13,97,27,2.502565909,1,1,1,0,1,6,2
13,98,18,2.898009941,1,1,0,0,1,6,2
13,99,65,2.379911527,1,1,1,0,1,6.5,2
13,100,104,2.411605034,1,1,0,2,1,7,2
13,101,19,2.196354839,1,1,1,2,1,6,2
13,102,74,2.140734683,1,1,0,2,1,6.5,2
13,103,38,2.080467515,1,1,0,2,1,6,2
13,104,139,2.448326514,1,1,1,0,1,7,2
13,105,57,2.162269906,0,1,1,0,1,6.5,2
13,106,71,2.252430822,1,1,1,0,1,6.5,2
13,107,77,2.203267097,1,1,1,2,1,6.5,2
13,108,127,2.329540618,1,1,1,0,1,7,2
13,109,122,2.230889863,1,1,0,2,1,7,2
13,110,28,2.811018376,1,1,0,0,1,6,2
13,111,75,2.477326419,1,1,1,0,1,6.5,2
13,112,82,2.263992808,1,1,0,2,1,6.5,2
13,113,111,2.139513914,1,1,1,2,1,7,2
13,114,56,2.16790585,1,1,0,2,1,6.5,2
13,115,8,2.115397085,1,1,0,2,1,6,2
13,116,94,2.260323256,1,1,0,2,1,6.5,2
13,117,126,2.148539273,1,1,0,2,1,7,2
13,118,124,2.869949461,1,1,0,0,1,7,2
13,119,118,2.575752279,1,1,0,0,1,7,2
13,120,140,2.537682942,1,1,0,0,1,7,2
13,121,103,2.254686709,1,1,1,2,1,7,2
13,122,96,2.502048199,1,1,0,0,1,6.5,2
13,123,58,2.496852082,1,1,0,0,1,6.5,2
13,124,7,2.270079748,1,1,1,2,1,6,2
13,125,39,2.323404774,1,1,1,0,1,6,2
13,126,64,2.406656753,1,1,0,2,1,6.5,2
13,127,42,2.181012514,1,1,0,2,1,6,2
13,128,11,2.41532047,1,1,1,2,1,6,2
13,129,143,2.482174478,1,1,1,0,1,7,2
13,130,45,2.458621847,1,1,1,2,1,6,2
13,131,22,2.720147458,1,1,0,0,1,6,2
13,132,142,2.376273672,1,1,0,2,1,7,2
13,133,116,2.176012915,1,1,0,2,1,7,2
13,134,55,2.271516054,1,1,1,2,1,6.5,2
13,135,123,2.346979442,1,1,1,0,1,7,2
13,136,138,2.274024305,1,1,0,2,1,7,2
13,137,69,2.503227612,1,1,1,0,1,6.5,2
13,138,132,2.768005286,1,1,0,0,1,7,2
13,139,67,2.213279878,1,1,1,2,1,6.5,2
13,140,29,2.328534178,1,1,1,2,1,6,2
13,141,109,2.419148203,1,1,1,0,1,7,2
13,142,95,2.313831518,1,1,1,0,1,6.5,2
13,143,15,2.360632795,1,1,1,2,1,6,2
13,144,62,3.667344067,1,1,0,0,1,6.5,2
14,1,110,10.01560012,-1,1,0,0,1,7,1
14,2,108,10.00019078,-1,1,0,2,1,7,1
14,3,97,10.00936738,-1,1,1,0,1,7,1
14,4,114,8.558847164,1,1,0,0,1,7,1
14,5,89,8.269395707,1,1,1,2,1,6.5,1
14,6,73,4.886021108,1,1,1,2,1,6.5,1
14,7,41,8.339948549,1,1,1,2,1,6,1
14,8,115,4.382461739,1,1,1,2,1,7,1
14,9,68,4.035868391,1,1,0,2,1,6.5,1
14,10,99,4.485491142,1,1,1,2,1,7,1
14,11,119,7.949816251,1,1,1,0,1,7,1
14,12,143,5.602563917,1,1,1,0,1,7,1
14,13,18,10.00079362,-1,1,0,0,1,6,1
14,14,123,10.00771131,-1,1,1,0,1,7,1
14,15,20,4.94200502,1,1,0,2,1,6,1
14,16,9,7.852952275,1,1,1,0,1,6,1
14,17,66,9.3170543,1,1,0,0,1,6.5,1
14,18,51,5.645946196,1,1,1,2,1,6.5,1
14,19,102,8.712127936,1,1,0,0,1,7,1
14,20,28,10.01362256,-1,1,0,0,1,6,1
14,21,44,8.316944117,1,1,0,0,1,6,1
14,22,135,5.32682981,1,1,1,0,1,7,1
14,23,4,3.409059954,1,1,0,2,1,6,1
14,24,83,9.542719067,0,1,1,0,1,6.5,1
14,25,128,9.530317575,1,1,0,0,1,7,1
14,26,7,7.373472001,1,1,1,2,1,6,1
14,27,21,9.768673328,1,1,1,0,1,6,1
14,28,82,9.528002521,1,1,0,2,1,6.5,1
14,29,5,10.01198521,-1,1,1,0,1,6,1
14,30,63,2.44154376,1,1,1,2,1,6.5,1
14,31,14,9.948036717,1,1,0,0,1,6,1
14,32,94,5.883636322,1,1,0,2,1,6.5,1
14,33,98,10.00072842,-1,1,0,0,1,7,1
14,34,8,2.145437844,1,1,0,2,1,6,1
14,35,130,6.610770298,1,1,0,2,1,7,1
14,36,65,9.271994822,1,1,1,0,1,6.5,1
14,37,96,9.364180693,1,1,0,0,1,6.5,1
14,38,90,3.605254197,1,1,0,2,1,6.5,1
14,39,133,6.135999222,1,1,1,2,1,7,1
14,40,74,4.2286539,1,1,0,2,1,6.5,1
14,41,26,5.334187932,1,1,0,2,1,6,1
14,42,29,4.158008685,1,1,1,2,1,6,1
14,43,71,3.213314593,1,1,1,0,1,6.5,1
14,44,121,7.354295302,1,1,1,2,1,7,1
14,45,3,7.892751941,1,1,1,2,1,6,1
14,46,141,3.70070481,1,1,1,2,1,7,1
14,47,56,3.368742578,1,1,0,2,1,6.5,1
14,48,139,4.704242444,1,1,1,0,1,7,1
14,49,122,2.815421174,1,1,0,2,1,7,1
14,50,93,2.048900493,1,1,1,2,1,6.5,1
14,51,101,9.606223809,1,1,1,0,1,7,1
14,52,54,7.766734105,1,1,0,0,1,6.5,1
14,53,22,8.95544827,1,1,0,0,1,6,1
14,54,103,6.238060523,1,1,1,2,1,7,1
14,55,38,7.525690486,1,1,0,2,1,6,1
14,56,118,8.018435303,1,1,0,0,1,7,1
14,57,52,4.330435365,1,1,0,2,1,6.5,1
14,58,106,9.582621671,1,1,0,0,1,7,1
14,59,136,7.612870721,1,1,0,0,1,7,1
14,60,79,4.996474743,1,1,1,0,1,6.5,1
14,61,140,7.297818736,1,1,0,0,1,7,1
14,62,132,5.845520496,1,1,0,0,1,7,1
14,63,124,6.0483049,1,1,0,0,1,7,1
14,64,59,6.595180136,1,1,1,2,1,6.5,1
14,65,36,10.00784836,-1,1,0,0,1,6,1
14,66,104,1.528963982,1,1,0,2,1,7,1
14,67,6,10.00337643,-1,1,0,0,1,6,1
14,68,25,2.942041848,1,1,1,2,1,6,1
14,69,81,2.356448854,1,1,1,2,1,6.5,1
14,70,117,10.01147444,-1,1,1,0,1,7,1
14,71,76,7.323703325,1,1,0,0,1,6.5,1
14,72,27,6.865330824,1,1,1,0,1,6,1
14,73,85,1.935072537,1,1,1,2,1,6.5,1
14,74,55,3.370011042,1,1,1,2,1,6.5,1
14,75,16,5.70666436,1,1,0,2,1,6,1
14,76,142,9.955591961,1,1,0,2,1,7,1
14,77,13,1.918987909,1,1,1,0,1,6,1
14,78,84,5.301785329,1,1,0,0,1,6.5,1
14,79,30,1.525558266,1,1,0,2,1,6,1
14,80,60,4.09292757,1,1,0,2,1,6.5,1
14,81,47,2.276778884,1,1,1,0,1,6,1
14,82,112,1.388294504,1,1,0,2,1,7,1
14,83,53,3.107079917,1,1,1,0,1,6.5,1
14,84,113,5.794688327,1,1,1,0,1,7,1
14,85,2,10.00521242,-1,1,0,0,1,6,1
14,86,91,2.450060163,1,1,1,0,1,6.5,1
14,87,49,5.485177799,1,1,1,0,1,6.5,1
14,88,75,4.818034779,1,1,1,0,1,6.5,1
14,89,37,2.70779819,1,1,1,2,1,6,1
14,90,105,5.867232918,1,1,1,0,1,7,1
14,91,35,3.727212161,1,1,1,0,1,6,1
14,92,33,1.546018524,1,1,1,2,1,6,1
14,93,107,2.202189415,1,1,1,2,1,7,1
14,94,31,1.956332452,1,1,1,0,1,6,1
14,95,137,1.89199696,1,1,1,2,1,7,1
14,96,86,2.391259185,1,1,0,2,1,6.5,1
14,97,17,3.098716864,1,1,1,0,1,6,1
14,98,39,3.77635717,1,1,1,0,1,6,1
14,99,144,6.140192824,1,1,0,0,1,7,1
14,100,134,2.872894822,1,1,0,2,1,7,1
14,101,95,3.321294691,1,1,1,0,1,6.5,1
14,102,1,2.822356676,1,1,1,0,1,6,1
14,103,61,2.265510317,1,1,1,0,1,6.5,1
14,104,32,9.809664784,0,1,0,0,1,6,1
14,105,131,4.85209194,1,1,1,0,1,7,1
14,106,42,5.722520773,1,1,0,2,1,6,1
14,107,48,7.018099621,1,1,0,0,1,6,1
14,108,125,1.871301242,1,1,1,2,1,7,1
14,109,45,3.521522846,1,1,1,2,1,6,1
14,110,80,10.00464671,-1,1,0,0,1,6.5,1
14,111,34,1.69643242,1,1,0,2,1,6,1
14,112,23,3.700229664,1,1,1,0,1,6,1
14,113,57,4.121530815,1,1,1,0,1,6.5,1
14,114,77,1.468411243,1,1,1,2,1,6.5,1
14,115,15,3.022331258,1,1,1,2,1,6,1
14,116,109,5.656358957,1,1,1,0,1,7,1
14,117,78,1.615666958,1,1,0,2,1,6.5,1
14,118,46,2.296889273,1,1,0,2,1,6,1
14,119,62,10.01513132,-1,1,0,0,1,6.5,1
14,120,70,9.803537996,1,1,0,0,1,6.5,1
14,121,11,2.50986909,1,1,1,2,1,6,1
14,122,92,8.365032575,1,1,0,0,1,6.5,1
14,123,67,3.68775844,1,1,1,2,1,6.5,1
14,124,12,5.907127371,1,1,0,2,1,6,1
14,125,43,1.585538657,1,1,1,0,1,6,1
14,126,24,6.42058481,1,1,0,0,1,6,1
14,127,127,4.01348189,1,1,1,0,1,7,1
14,128,72,9.722831399,1,1,0,0,1,6.5,1
14,129,100,5.204949729,1,1,0,2,1,7,1
14,130,116,4.696300201,1,1,0,2,1,7,1
14,131,138,2.904093863,1,1,0,2,1,7,1
14,132,69,10.01119491,-1,1,1,0,1,6.5,1
14,133,58,10.01366301,-1,1,0,0,1,6.5,1
14,134,126,2.302767016,1,1,0,2,1,7,1
14,135,50,9.184867717,1,1,0,0,1,6.5,1
14,136,64,1.732973683,0,1,0,2,1,6.5,1
14,137,87,5.104513102,0,1,1,0,1,6.5,1
14,138,40,10.00190179,-1,1,0,0,1,6,1
14,139,129,1.891704446,1,1,1,2,1,7,1
14,140,111,2.134570162,1,1,1,2,1,7,1
14,141,88,5.850506812,1,1,0,0,1,6.5,1
14,142,120,2.290696376,1,1,0,0,1,7,1
14,143,10,10.00825076,-1,1,0,0,1,6,1
14,144,19,3.534836292,1,1,1,2,1,6,1
14,1,136,2.420598696,1,1,0,2,1,6,2
14,2,113,2.337657343,1,1,1,2,1,6,2
14,3,135,2.562731347,1,1,1,2,1,6,2
14,4,48,2.644150965,1,1,0,2,1,6.5,2
14,5,21,2.507276616,1,1,1,2,1,6.5,2
14,6,58,2.483078886,1,1,0,2,1,7,2
14,7,96,2.780146565,1,1,0,2,1,7,2
14,8,142,3.343758773,1,1,0,0,1,6,2
14,9,12,3.277951958,1,1,0,0,1,6.5,2
14,10,55,3.362209169,1,1,1,0,1,7,2
14,11,107,2.662908666,1,1,1,0,1,6,2
14,12,82,3.436147804,1,1,0,0,1,7,2
14,13,115,3.029613912,1,1,1,0,1,6,2
14,14,126,3.848602002,1,1,0,0,1,6,2
14,15,102,2.347259579,1,1,0,2,1,6,2
14,16,46,2.526951102,1,1,0,0,1,6.5,2
14,17,33,2.649208221,1,1,1,0,1,6.5,2
14,18,37,2.470857008,1,1,1,0,1,6.5,2
14,19,34,2.63624887,1,1,0,0,1,6.5,2
14,20,137,2.88449726,1,1,1,0,1,6,2
14,21,90,2.613690303,1,1,0,0,1,7,2
14,22,84,2.417311917,1,1,0,2,1,7,2
14,23,39,2.188753711,1,1,1,2,1,6.5,2
14,24,60,2.717955568,1,1,0,0,1,7,2
14,25,106,2.613968628,1,1,0,2,1,6,2
14,26,53,2.156822028,1,1,1,2,1,7,2
14,27,10,2.251810475,1,1,0,2,1,6.5,2
14,28,73,2.595806821,1,1,1,0,1,7,2
14,29,18,2.200097142,1,1,0,2,1,6.5,2
14,30,61,2.345525024,1,1,1,2,1,7,2
14,31,30,3.433705058,1,1,0,0,1,6.5,2
14,32,89,2.363856785,1,1,1,0,1,7,2
14,33,67,2.453423013,1,1,1,0,1,7,2
14,34,99,2.453528367,1,1,1,0,1,6,2
14,35,28,2.143123997,1,1,0,2,1,6.5,2
14,36,103,2.555991156,1,1,1,0,1,6,2
14,37,88,2.196931414,1,1,0,2,1,7,2
14,38,49,2.142317094,1,1,1,2,1,7,2
14,39,6,2.323853054,1,1,0,2,1,6.5,2
14,40,45,2.425860621,1,1,1,0,1,6.5,2
14,41,15,2.396331233,1,1,1,0,1,6.5,2
14,42,24,2.094471039,1,1,0,2,1,6.5,2
14,43,69,2.404925217,1,1,1,2,1,7,2
14,44,72,2.550713232,1,1,0,2,1,7,2
14,45,97,2.302786638,1,1,1,2,1,6,2
14,46,62,2.174131953,1,1,0,2,1,7,2
14,47,52,2.366412128,1,1,0,0,1,7,2
14,48,100,2.475235052,1,1,0,0,1,6,2
14,49,108,2.653936739,1,1,0,0,1,6,2
14,50,128,2.254212166,1,1,0,2,1,6,2
14,51,76,2.166080432,1,1,0,2,1,7,2
14,52,105,2.048316069,1,1,1,2,1,6,2
14,53,50,2.024009061,1,1,0,2,1,7,2
14,54,16,2.619942065,1,1,0,0,1,6.5,2
14,55,127,2.230008398,1,1,1,2,1,6,2
14,56,59,2.467830744,1,1,1,0,1,7,2
14,57,4,2.580993375,1,1,0,0,1,6.5,2
14,58,94,2.501215033,1,1,0,0,1,7,2
14,59,35,2.202478004,1,1,1,2,1,6.5,2
14,60,143,2.543049616,1,1,1,2,1,6,2
14,61,133,2.680015432,1,1,1,0,1,6,2
14,62,32,2.239331101,1,1,0,2,1,6.5,2
14,63,75,2.070639781,1,1,1,2,1,7,2
14,64,114,2.29294381,1,1,0,2,1,6,2
14,65,71,2.359444025,1,1,1,2,1,7,2
14,66,125,2.641347785,1,1,1,0,1,6,2
14,67,25,2.360309189,1,1,1,0,1,6.5,2
14,68,85,2.406704147,1,1,1,0,1,7,2
14,69,116,2.902738459,1,1,0,0,1,6,2
14,70,70,2.244743056,1,1,0,2,1,7,2
14,71,109,2.23246352,1,1,1,2,1,6,2
14,72,139,2.346276685,1,1,1,2,1,6,2
14,73,47,2.32731522,1,1,1,2,1,6.5,2
14,74,68,2.59030672,1,1,0,0,1,7,2
14,75,19,2.398621835,1,1,1,0,1,6.5,2
14,76,65,2.203278568,1,1,1,2,1,7,2
14,77,81,2.76946876,1,1,1,0,1,7,2
14,78,93,2.400937493,1,1,1,0,1,7,2
14,79,123,2.418839992,1,1,1,2,1,6,2
14,80,43,2.255926194,1,1,1,2,1,6.5,2
14,81,91,2.12051381,1,1,1,2,1,7,2
14,82,29,2.48773586,1,1,1,0,1,6.5,2
14,83,141,2.584097823,1,1,1,0,1,6,2
14,84,118,2.597619863,1,1,0,2,1,6,2
14,85,92,2.518253274,1,1,0,2,1,7,2
14,86,42,2.998336687,1,1,0,0,1,6.5,2
14,87,117,3.258160346,1,1,1,2,1,6,2
14,88,122,2.642245249,1,1,0,0,1,6,2
14,89,44,2.370824888,1,1,0,2,1,6.5,2
14,90,3,2.354745091,1,1,1,0,1,6.5,2
14,91,31,2.418154743,1,1,1,2,1,6.5,2
14,92,26,2.407424413,1,1,0,0,1,6.5,2
14,93,87,2.205310466,1,1,1,2,1,7,2
14,94,5,2.456079182,1,1,1,2,1,6.5,2
14,95,7,2.376312312,1,1,1,0,1,6.5,2
14,96,23,2.527751666,1,1,1,2,1,6.5,2
14,97,74,2.513099117,1,1,0,0,1,7,2
14,98,95,2.286308973,1,1,1,2,1,7,2
14,99,111,2.708995111,1,1,1,0,1,6,2
14,100,56,2.606857739,1,1,0,0,1,7,2
14,101,104,2.501357215,1,1,0,0,1,6,2
14,102,120,2.342662979,1,1,0,2,1,6,2
14,103,36,2.104197646,1,1,0,2,1,6.5,2
14,104,11,2.202801007,1,1,1,0,1,6.5,2
14,105,9,2.111250576,1,1,1,2,1,6.5,2
14,106,22,2.349868354,1,1,0,2,1,6.5,2
14,107,80,2.177543405,1,1,0,2,1,7,2
14,108,110,2.393653028,1,1,0,2,1,6,2
14,109,124,2.198046528,1,1,0,2,1,6,2
14,110,78,2.622327455,1,1,0,0,1,7,2
14,111,13,2.136108802,1,1,1,2,1,6.5,2
14,112,79,2.243383426,1,1,1,2,1,7,2
14,113,119,2.235308661,1,1,1,2,1,6,2
14,114,38,2.888879531,1,1,0,0,1,6.5,2
14,115,51,2.730409284,1,1,1,0,1,7,2
14,116,40,2.28283443,1,1,0,2,1,6.5,2
14,117,98,2.591502132,1,1,0,2,1,6,2
14,118,2,2.826264103,1,1,0,2,1,6.5,2
14,119,144,3.076002531,1,1,0,2,1,6,2
14,120,66,3.174291945,1,1,0,2,1,7,2
14,121,101,2.238951346,1,1,1,2,1,6,2
14,122,57,2.191516138,1,1,1,2,1,7,2
14,123,14,2.155626616,1,1,0,2,1,6.5,2
14,124,131,2.212741339,1,1,1,2,1,6,2
14,125,64,2.44239051,1,1,0,0,1,7,2
14,126,41,2.466203958,1,1,1,0,1,6.5,2
14,127,132,2.29475172,1,1,0,2,1,6,2
14,128,130,3.299602194,1,1,0,0,1,6,2
14,129,129,2.39146808,1,1,1,0,1,6,2
14,130,140,2.007334576,1,1,0,2,1,6,2
14,131,86,2.838734119,1,1,0,0,1,7,2
14,132,121,2.470080594,1,1,1,0,1,6,2
14,133,77,2.703025599,1,1,1,0,1,7,2
14,134,54,2.051309731,1,1,0,2,1,7,2
14,135,83,2.054981999,1,1,1,2,1,7,2
14,136,8,3.067499108,1,1,0,0,1,6.5,2
14,137,138,2.535724097,1,1,0,0,1,6,2
14,138,20,2.606134455,1,1,0,0,1,6.5,2
14,139,112,2.565316576,1,1,0,0,1,6,2
14,140,63,2.282690437,1,1,1,0,1,7,2
14,141,134,2.432473724,1,1,0,0,1,6,2
14,142,17,2.123311858,1,1,1,2,1,6.5,2
14,143,1,2.218228762,1,1,1,2,1,6.5,2
14,144,27,2.031675394,1,1,1,2,1,6.5,2
15,1,114,2.098826142,1,1,0,2,1,6,1
15,2,44,10.00751962,-1,1,0,2,2,6.5,1
15,3,119,1.430341604,1,1,1,2,1,6,1
15,4,141,10.01623194,-1,1,1,0,2,6,1
15,5,106,1.230520976,1,1,0,2,1,6,1
15,6,57,7.097187884,1,1,1,2,2,7,1
15,7,24,1.630266679,1,1,0,2,1,6.5,1
15,8,4,1.433104333,1,1,0,0,1,6.5,1
15,9,43,5.205621696,1,1,1,2,2,6.5,1
15,10,84,2.178273934,1,1,0,2,1,7,1
15,11,28,7.360126557,1,1,0,2,2,6.5,1
15,12,19,1.526051525,1,1,1,0,1,6.5,1
15,13,132,1.304365125,1,1,0,2,1,6,1
15,14,1,4.247124521,1,1,1,2,2,6.5,1
15,15,137,3.836063159,1,1,1,0,2,6,1
15,16,81,4.44080025,1,1,1,0,2,7,1
15,17,30,1.674428391,1,1,0,0,1,6.5,1
15,18,91,3.806300726,1,1,1,2,2,7,1
15,19,25,1.414703746,1,1,1,0,1,6.5,1
15,20,56,1.372373188,1,1,0,0,1,7,1
15,21,29,1.373022212,1,1,1,0,1,6.5,1
15,22,125,5.071140888,1,1,1,0,2,6,1
15,23,93,1.658882,1,1,1,0,1,7,1
15,24,143,1.257398724,1,1,1,2,1,6,1
15,25,135,1.306001873,1,1,1,2,1,6,1
15,26,64,1.2925873,1,1,0,0,1,7,1
15,27,40,2.716909885,1,1,0,2,2,6.5,1
15,28,20,1.56865739,1,1,0,0,1,6.5,1
15,29,101,1.318627051,1,1,1,2,1,6,1
15,30,82,2.571890435,1,1,0,0,2,7,1
15,31,97,1.507829343,1,1,1,2,1,6,1
15,32,70,1.999608774,1,1,0,2,2,7,1
15,33,23,1.2074933,1,1,1,2,1,6.5,1
15,34,92,2.092426463,1,1,0,2,2,7,1
15,35,54,2.576367192,1,1,0,2,1,7,1
15,36,61,1.848027842,1,1,1,2,2,7,1
15,37,87,1.790207042,1,1,1,2,2,7,1
15,38,105,2.230082357,1,1,1,2,1,6,1
15,39,99,2.573411265,1,1,1,0,2,6,1
15,40,118,3.423958226,1,1,0,2,2,6,1
15,41,130,4.648964912,1,1,0,0,2,6,1
15,42,124,2.067922332,1,1,0,2,1,6,1
15,43,123,1.552503331,1,1,1,2,1,6,1
15,44,95,1.97490722,1,1,1,2,2,7,1
15,45,110,1.450008241,1,1,0,2,1,6,1
15,46,42,1.54274382,1,1,0,0,1,6.5,1
15,47,90,1.460247124,1,1,0,0,1,7,1
15,48,131,1.260006593,1,1,1,2,1,6,1
15,49,136,1.118751181,1,1,0,2,1,6,1
15,50,21,3.196356047,1,1,1,2,2,6.5,1
15,51,45,1.553568334,1,1,1,0,1,6.5,1
15,52,116,2.082029399,1,1,0,0,1,6,1
15,53,26,1.529015301,1,1,0,0,1,6.5,1
15,54,85,1.72244772,1,1,1,0,1,7,1
15,55,127,1.337474107,1,1,1,2,1,6,1
15,56,98,1.974126881,1,1,0,2,1,6,1
15,57,6,3.637018945,1,1,0,2,2,6.5,1
15,58,96,3.346748812,0,1,0,2,2,7,1
15,59,80,2.869083693,1,1,0,2,1,7,1
15,60,39,1.779299815,1,1,1,2,2,6.5,1
15,61,53,1.306110245,1,1,1,2,1,7,1
15,62,126,1.699784403,1,1,0,0,2,6,1
15,63,128,1.709825862,1,1,0,2,1,6,1
15,64,115,3.40897392,1,1,1,0,1,6,1
15,65,65,1.946738367,1,1,1,2,2,7,1
15,66,121,3.236453962,1,1,1,0,2,6,1
15,67,10,3.721287024,1,1,0,2,2,6.5,1
15,68,134,3.431211296,1,1,0,0,2,6,1
15,69,38,3.920703144,1,1,0,0,1,6.5,1
15,70,3,1.308947235,1,1,1,0,1,6.5,1
15,71,138,3.055058071,1,1,0,0,2,6,1
15,72,35,4.43441174,1,1,1,2,2,6.5,1
15,73,89,1.402996257,1,1,1,0,1,7,1
15,74,31,2.027892942,1,1,1,2,2,6.5,1
15,75,108,2.016097307,1,1,0,0,2,6,1
15,76,117,1.836330617,1,1,1,2,2,6,1
15,77,63,1.765545938,1,1,1,0,1,7,1
15,78,55,2.058283872,1,1,1,0,1,7,1
15,79,94,6.845973907,1,1,0,0,1,7,1
15,80,51,3.696393479,1,1,1,0,2,7,1
15,81,77,5.672359966,1,1,1,0,2,7,1
15,82,48,1.967288885,1,1,0,2,2,6.5,1
15,83,14,1.933429147,1,1,0,2,2,6.5,1
15,84,111,1.822041824,1,1,1,0,2,6,1
15,85,112,2.07955073,1,1,0,0,2,6,1
15,86,71,5.516457741,1,1,1,2,1,7,1
15,87,18,3.058222592,0,1,0,2,2,6.5,1
15,88,60,5.498248541,1,1,0,0,1,7,1
15,89,142,3.940732932,1,1,0,0,2,6,1
15,90,66,10.00484172,1,1,0,2,2,7,1
15,91,129,2.034566721,1,1,1,0,2,6,1
15,92,73,2.802213987,1,1,1,0,2,7,1
15,93,47,4.262713778,1,1,1,2,2,6.5,1
15,94,50,1.649651368,1,1,0,2,1,7,1
15,95,133,5.708300203,1,1,1,0,2,6,1
15,96,139,9.379241372,1,1,1,2,1,6,1
15,97,5,6.443612486,1,1,1,2,2,6.5,1
15,98,74,10.00473637,-1,1,0,0,2,7,1
15,99,120,1.45589987,1,1,0,2,1,6,1
15,100,46,1.771273047,1,1,0,0,1,6.5,1
15,101,76,1.429831139,1,1,0,2,1,7,1
15,102,2,2.300489696,1,1,0,2,2,6.5,1
15,103,122,6.235535366,1,1,0,0,2,6,1
15,104,8,2.295916642,1,1,0,0,1,6.5,1
15,105,52,9.628335908,1,1,0,0,2,7,1
15,106,72,1.501606561,1,1,0,2,1,7,1
15,107,144,8.951245009,1,1,0,2,1,6,1
15,108,17,6.209152387,1,1,1,2,2,6.5,1
15,109,68,2.697347393,1,1,0,0,1,7,1
15,110,15,2.359119513,1,1,1,0,1,6.5,1
15,111,79,1.871722655,1,1,1,2,1,7,1
15,112,102,8.300676253,1,1,0,2,1,6,1
15,113,104,10.00662488,-1,1,0,0,2,6,1
15,114,140,2.256880108,1,1,0,2,1,6,1
15,115,13,2.027555751,1,1,1,2,2,6.5,1
15,116,34,1.595238095,1,1,0,0,1,6.5,1
15,117,27,2.13873418,1,1,1,2,2,6.5,1
15,118,69,2.77998446,1,1,1,2,2,7,1
15,119,113,1.662102367,0,1,1,2,1,6,1
15,120,107,1.970751956,1,1,1,0,2,6,1
15,121,109,1.946536113,1,1,1,2,1,6,1
15,122,67,2.537481593,1,1,1,0,1,7,1
15,123,62,5.798049366,1,1,0,2,2,7,1
15,124,41,10.00037553,-1,1,1,0,1,6.5,1
15,125,75,2.449801459,1,1,1,2,1,7,1
15,126,100,2.2703783,1,1,0,0,2,6,1
15,127,88,2.538201255,1,1,0,2,2,7,1
15,128,103,1.753083468,1,1,1,0,2,6,1
15,129,58,2.758383429,1,1,0,2,2,7,1
15,130,16,2.453844728,1,1,0,0,1,6.5,1
15,131,33,1.706296077,1,1,1,0,1,6.5,1
15,132,32,10.00934746,-1,1,0,2,2,6.5,1
15,133,12,3.622315984,1,1,0,0,1,6.5,1
15,134,36,1.91267547,1,1,0,2,2,6.5,1
15,135,59,1.806803644,1,1,1,0,1,7,1
15,136,78,2.389985287,1,1,0,0,2,7,1
15,137,22,3.913837676,1,1,0,2,2,6.5,1
15,138,9,10.01095221,-1,1,1,2,2,6.5,1
15,139,49,1.749246076,1,1,1,2,1,7,1
15,140,7,1.856127361,1,1,1,0,1,6.5,1
15,141,37,2.211590302,0,1,1,0,1,6.5,1
15,142,83,1.589520646,1,1,1,2,1,7,1
15,143,11,9.016723086,1,1,1,0,1,6.5,1
15,144,86,2.103493983,1,1,0,0,1,7,1
15,1,104,10.01002667,-1,1,0,2,2,7,2
15,2,21,10.01287754,-1,1,1,0,1,6,2
15,3,79,10.00030036,-1,1,1,0,2,6.5,2
15,4,43,10.00420266,-1,1,1,0,2,6,2
15,5,25,3.376659464,1,1,1,2,1,6,2
15,6,55,2.717298394,1,1,1,2,2,6.5,2
15,7,118,5.354448653,0,1,0,0,1,7,2
15,8,5,10.01359238,-1,1,1,0,1,6,2
15,9,96,7.556739194,1,1,0,0,2,6.5,2
15,10,85,2.601312961,1,1,1,2,1,6.5,2
15,11,28,10.01183307,-1,1,0,0,2,6,2
15,12,49,10.01158674,-1,1,1,0,1,6.5,2
15,13,127,10.01360928,-1,1,1,0,2,7,2
15,14,129,3.267262078,1,1,1,2,1,7,2
15,15,33,9.308551481,1,1,1,2,1,6,2
15,16,98,10.00107527,-1,1,0,0,1,7,2
15,17,143,10.01239666,-1,1,1,0,2,7,2
15,18,112,10.01378708,-1,1,0,2,2,7,2
15,19,10,10.01002304,-1,1,0,0,1,6,2
15,20,48,6.962617722,0,1,0,0,2,6,2
15,21,66,10.01092836,-1,1,0,0,1,6.5,2
15,22,110,10.00833317,-1,1,0,0,1,7,2
15,23,125,10.01162478,-1,1,1,2,1,7,2
15,24,15,2.421254965,1,1,1,2,2,6,2
15,25,23,3.73343917,1,1,1,0,2,6,2
15,26,77,2.650079422,1,1,1,2,1,6.5,2
15,27,144,10.0085481,-1,1,0,0,2,7,2
15,28,24,10.00144083,-1,1,0,0,2,6,2
15,29,22,10.00184655,-1,1,0,0,1,6,2
15,30,39,10.00627501,-1,1,1,0,2,6,2
15,31,133,10.01062498,-1,1,1,2,1,7,2
15,32,70,10.00093701,-1,1,0,0,1,6.5,2
15,33,114,10.00589012,-1,1,0,0,1,7,2
15,34,9,10.00483085,-1,1,1,0,1,6,2
15,35,6,10.01114329,-1,1,0,0,1,6,2
15,36,135,10.01184454,-1,1,1,0,2,7,2
15,37,56,5.012988028,1,1,0,2,2,6.5,2
15,38,54,8.278545739,1,1,0,0,1,6.5,2
15,39,32,10.0043714,-1,1,0,0,2,6,2
15,40,109,10.00076736,-1,1,1,0,1,7,2
15,41,137,2.62630069,1,1,1,2,1,7,2
15,42,1,10.00371181,-1,1,1,0,1,6,2
15,43,90,4.690164961,1,1,0,2,1,6.5,2
15,44,42,10.01271755,-1,1,0,2,1,6,2
15,45,36,6.686230667,1,1,0,0,2,6,2
15,46,53,10.01006772,-1,1,1,0,1,6.5,2
15,47,13,10.00426786,-1,1,1,0,1,6,2
15,48,95,10.00839535,-1,1,1,0,2,6.5,2
15,49,68,2.391546265,1,1,0,2,2,6.5,2
15,50,60,2.588632238,1,1,0,2,2,6.5,2
15,51,121,2.746662356,1,1,1,2,1,7,2
15,52,117,10.00085218,-1,1,1,0,1,7,2
15,53,62,7.527760722,0,1,0,0,1,6.5,2
15,54,63,2.817902258,1,1,1,2,2,6.5,2
15,55,107,3.481038233,1,1,1,2,2,7,2
15,56,84,10.01036869,-1,1,0,0,2,6.5,2
15,57,138,8.09659048,1,1,0,2,1,7,2
