Participant,block,trial,stim,stim group,RT,Acuracy,stim position,mask side,response
1,1,1,folder/matchedM024IN.png,3,1.265852789,1,3,2,3
1,1,2,folder/matchedM049IN.png,3,1.541979251,1,4,2,4
1,1,3,folder/matchedM002.png,1,1.626291163,1,4,2,4
1,1,4,folder/matchedM021.png,1,2.03366861,1,2,2,2
1,1,5,folder/matchedM067IN.png,4,2.438436483,1,3,1,3
1,1,6,folder/matchedM001IN.png,4,1.304743067,1,4,1,4
1,1,7,folder/matchedM005SR.png,6,4.004759011,1,4,1,4
1,1,8,folder/matchedM072IN.png,3,2.980558886,1,1,2,1
1,1,9,folder/matchedM020SR.png,6,3.888131376,1,3,1,3
1,1,10,folder/matchedM024IN.png,4,1.366201003,1,1,1,1
1,1,11,folder/matchedM006IN.png,4,4.642850013,1,1,1,1
1,1,12,folder/matchedM002IN.png,3,3.022531071,1,3,2,3
1,1,13,folder/matchedM067.png,1,2.260112383,1,1,2,1
1,1,14,folder/matchedM021SL.png,5,3.173565241,1,1,2,1
1,1,15,folder/matchedM001IN.png,3,1.095099237,1,3,2,3
1,1,16,folder/matchedM016.png,2,0.973122765,1,1,1,1
1,1,17,folder/matchedM008.png,1,1.119639046,1,3,2,3
1,1,18,folder/matchedM072IN.png,4,2.330041059,1,2,1,2
1,1,19,folder/matchedM004.png,1,0.985056514,1,2,2,2
1,1,20,folder/matchedM020.png,2,1.311868636,1,2,1,2
1,1,21,folder/matchedM001SR.png,6,1.311592303,1,3,1,3
1,1,22,folder/matchedM024SR.png,5,3.31242772,1,3,2,3
1,1,23,folder/matchedM072.png,2,1.876293335,1,2,1,2
1,1,24,folder/matchedM020IN.png,3,2.10229339,1,2,2,2
1,1,25,folder/matchedM004IN.png,3,1.279913921,1,4,2,4
1,1,26,folder/matchedM006.png,1,1.496127613,1,4,2,4
1,1,27,folder/matchedM072.png,1,1.144860911,1,3,2,3
1,1,28,folder/matchedM003SR.png,6,1.171691358,1,1,1,1
1,1,29,folder/matchedM008.png,2,1.076883747,1,2,1,2
1,1,30,folder/matchedM016.png,1,1.441773845,0,4,2,3
1,1,31,folder/matchedM049SL.png,5,3.412445955,1,1,2,1
1,1,32,folder/matchedM016IN.png,3,1.270669649,1,1,2,1
1,1,33,folder/matchedM017.png,2,1.518628347,1,4,1,4
1,1,34,folder/matchedM067SR.png,5,1.819456633,1,1,2,1
1,1,35,folder/matchedM002.png,2,1.814140859,1,4,1,4
1,1,36,folder/matchedM006IN.png,3,2.053095509,1,1,2,1
1,1,37,folder/matchedM006SL.png,6,8.560240522,1,2,1,2
1,1,38,folder/matchedM006SL.png,5,7.606381529,1,3,2,3
1,1,39,folder/matchedM003SR.png,5,4.692631198,1,1,2,1
1,1,40,folder/matchedM005.png,1,0.73921306,1,1,2,1
1,1,41,folder/matchedM019.png,2,1.831814071,1,4,1,4
1,1,42,folder/matchedM004SL.png,6,1.907915097,0,3,1,2
1,1,43,folder/matchedM020.png,1,0.944627992,1,3,2,3
1,1,44,folder/matchedM016IN.png,4,2.285317282,1,3,1,3
1,1,45,folder/matchedM049IN.png,4,3.78288213,1,2,1,2
1,1,46,folder/matchedM001.png,2,1.352265211,1,1,1,1
1,1,47,folder/matchedM021SL.png,6,3.614862513,1,1,1,1
1,1,48,folder/matchedM049.png,2,2.219771571,1,3,1,3
1,1,49,folder/matchedM008IN.png,4,1.301157901,1,1,1,1
1,1,50,folder/matchedM021.png,2,2.144081143,0,3,1,4
1,1,51,folder/matchedM008SR.png,6,1.509418861,1,3,1,3
1,1,52,folder/matchedM017SR.png,6,3.287383888,1,2,1,2
1,1,53,folder/matchedM008IN.png,3,1.409459941,1,1,2,1
1,1,54,folder/matchedM017IN.png,4,2.112690841,1,2,1,2
1,1,55,folder/matchedM005SR.png,5,1.634343718,1,2,2,2
1,1,56,folder/matchedM019IN.png,3,1.75475828,1,4,2,4
1,1,57,folder/matchedM006.png,2,2.132328332,1,4,1,4
1,1,58,folder/matchedM067SR.png,6,4.03236349,0,3,1,4
1,1,59,folder/matchedM005IN.png,4,1.770041397,1,2,1,2
1,1,60,folder/matchedM049SL.png,6,2.319531037,1,1,1,1
1,1,61,folder/matchedM004IN.png,4,2.214728216,1,3,1,3
1,1,62,folder/matchedM019SL.png,6,3.214549482,1,2,1,2
1,1,63,folder/matchedM004SL.png,5,1.224187294,1,1,2,1
1,1,64,folder/matchedM017IN.png,3,1.76540081,1,3,2,3
1,1,65,folder/matchedM002IN.png,4,2.079603409,1,4,1,4
1,1,66,folder/matchedM049.png,1,1.53437478,1,1,2,1
1,1,67,folder/matchedM003IN.png,3,2.234155885,1,1,2,1
1,1,68,folder/matchedM020SR.png,5,1.152094438,1,3,2,3
1,1,69,folder/matchedM017.png,1,1.133737055,1,4,2,4
1,1,70,folder/matchedM019.png,1,1.470658014,1,4,2,4
1,1,71,folder/matchedM016SL.png,6,3.252878794,1,2,1,2
1,1,72,folder/matchedM004.png,2,1.27465067,1,1,1,1
1,1,73,folder/matchedM024.png,2,1.308555032,1,2,1,2
1,1,74,folder/matchedM072SL.png,6,1.54669953,1,4,1,4
1,1,75,folder/matchedM005IN.png,3,1.97610809,1,3,2,3
1,1,76,folder/matchedM008SR.png,5,1.579689275,1,1,2,1
1,1,77,folder/matchedM002SL.png,6,1.976600226,1,2,1,2
1,1,78,folder/matchedM067IN.png,3,1.244041351,0,2,2,3
1,1,79,folder/matchedM003.png,1,1.589870006,1,4,2,4
1,1,80,folder/matchedM017SR.png,5,2.313070963,1,2,2,2
1,1,81,folder/matchedM003.png,2,3.645235525,1,4,1,4
1,1,82,folder/matchedM024SR.png,6,3.946969447,1,1,1,1
1,1,83,folder/matchedM005.png,2,1.742761404,1,4,1,4
1,1,84,folder/matchedM072SL.png,5,2.984560403,1,3,2,3
1,1,85,folder/matchedM001SR.png,5,3.124548795,1,3,2,3
1,1,86,folder/matchedM002SL.png,5,3.115979319,0,1,2,4
1,1,87,folder/matchedM024.png,1,1.173476417,1,1,2,1
1,1,88,folder/matchedM021IN.png,4,4.101152403,1,3,1,3
1,1,89,folder/matchedM019SL.png,5,1.886002168,1,3,2,3
1,1,90,folder/matchedM021IN.png,3,1.734850024,1,3,2,3
1,1,91,folder/matchedM016SL.png,5,1.011221627,1,1,2,1
1,1,92,folder/matchedM001.png,1,1.425216941,1,3,2,3
1,1,93,folder/matchedM020IN.png,4,1.573702306,1,2,1,2
1,1,94,folder/matchedM067.png,2,1.682289686,1,1,1,1
1,1,95,folder/matchedM003IN.png,4,4.75445006,1,2,1,2
1,1,96,folder/matchedM019IN.png,4,4.154964221,1,2,1,2
9,1,1,folder/matchedM008.png,1,1.628300799,1,3,2,3
9,1,2,folder/matchedM001IN.png,4,3.533842447,1,4,1,4
9,1,3,folder/matchedM001SR.png,6,5.300184505,1,3,1,3
9,1,4,folder/matchedM049SL.png,5,1.044719639,1,4,2,4
9,1,5,folder/matchedM016.png,2,1.183046656,1,4,1,4
9,1,6,folder/matchedM017SR.png,5,2.428746905,1,3,2,3
9,1,7,folder/matchedM049.png,2,1.452973197,1,2,1,2
9,1,8,folder/matchedM006SL.png,6,2.083594516,1,1,1,1
9,1,9,folder/matchedM001SR.png,5,3.362229939,1,3,2,3
9,1,10,folder/matchedM067IN.png,3,1.369627595,0,4,2,1
9,1,11,folder/matchedM072IN.png,4,2.447832859,1,4,1,4
9,1,12,folder/matchedM049SL.png,6,1.198503651,1,2,1,2
9,1,13,folder/matchedM008SR.png,5,0.927484174,1,4,2,4
9,1,14,folder/matchedM024.png,1,1.089373447,1,1,2,1
9,1,15,folder/matchedM021IN.png,4,3.886952565,1,1,1,1
9,1,16,folder/matchedM005.png,1,0.922064845,1,4,2,4
9,1,17,folder/matchedM003SR.png,5,5.035469657,1,2,2,2
9,1,18,folder/matchedM024.png,2,1.250704322,1,2,1,2
9,1,19,folder/matchedM020.png,1,1.10234299,1,4,2,4
9,1,20,folder/matchedM006SL.png,5,1.160565265,1,4,2,4
9,1,21,folder/matchedM017.png,1,1.362075788,1,3,2,3
9,1,22,folder/matchedM019IN.png,3,1.229955975,1,1,2,1
9,1,23,folder/matchedM067.png,2,1.958517291,1,2,1,2
9,1,24,folder/matchedM002.png,1,0.989195345,1,2,2,2
9,1,25,folder/matchedM019.png,2,2.018650338,1,3,1,3
9,1,26,folder/matchedM021SL.png,5,1.756141906,1,1,2,1
9,1,27,folder/matchedM003IN.png,3,2.418979272,1,2,2,2
9,1,28,folder/matchedM020SR.png,5,1.44746562,1,4,2,4
9,1,29,folder/matchedM067SR.png,5,1.338468438,1,3,2,3
9,1,30,folder/matchedM049IN.png,3,1.356402005,1,2,2,2
9,1,31,folder/matchedM072.png,1,1.227161412,1,3,2,3
9,1,32,folder/matchedM006.png,1,1.482425952,1,1,2,1
9,1,33,folder/matchedM001.png,1,0.892801332,1,1,2,1
9,1,34,folder/matchedM002SL.png,5,0.976793205,1,4,2,4
9,1,35,folder/matchedM005SR.png,6,2.02926492,1,1,1,1
9,1,36,folder/matchedM016SL.png,6,2.057139232,1,2,1,2
9,1,37,folder/matchedM024SR.png,6,2.051912243,1,1,1,1
9,1,38,folder/matchedM072SL.png,5,1.917534156,1,2,2,2
9,1,39,folder/matchedM008SR.png,6,3.057112342,1,2,1,2
9,1,40,folder/matchedM017IN.png,4,3.547156265,1,2,1,2
9,1,41,folder/matchedM005SR.png,5,1.391284304,1,4,2,4
9,1,42,folder/matchedM021.png,1,1.305788131,1,3,2,3
9,1,43,folder/matchedM001IN.png,3,1.29379807,1,4,2,4
9,1,44,folder/matchedM006.png,2,1.231601553,1,1,1,1
9,1,45,folder/matchedM019SL.png,5,3.017174188,1,2,2,2
9,1,46,folder/matchedM020SR.png,6,2.581071867,1,2,1,2
9,1,47,folder/matchedM020IN.png,3,1.850928723,1,3,2,3
9,1,48,folder/matchedM016IN.png,3,2.939591518,1,3,2,3
9,1,49,folder/matchedM004.png,2,1.703957893,1,3,1,3
9,1,50,folder/matchedM067SR.png,6,1.020578305,1,2,1,2
9,1,51,folder/matchedM067IN.png,4,1.552138258,1,1,1,1
9,1,52,folder/matchedM003SR.png,6,10.00474706,-1,3,1,0
9,1,53,folder/matchedM006IN.png,3,2.695925128,1,2,2,2
9,1,54,folder/matchedM004.png,1,2.118843166,1,2,2,2
9,1,55,folder/matchedM008IN.png,4,3.162934516,1,3,1,3
9,1,56,folder/matchedM008IN.png,3,1.114670668,1,4,2,4
9,1,57,folder/matchedM049IN.png,4,1.904383119,1,2,1,2
9,1,58,folder/matchedM002IN.png,4,1.201964724,1,1,1,1
9,1,59,folder/matchedM004IN.png,3,1.296335007,1,2,2,2
9,1,60,folder/matchedM003.png,1,2.90964721,1,1,2,1
9,1,61,folder/matchedM072SL.png,6,4.151316743,1,2,1,2
9,1,62,folder/matchedM017IN.png,3,1.998573685,1,3,2,3
9,1,63,folder/matchedM001.png,2,2.98999209,1,3,1,3
9,1,64,folder/matchedM072.png,2,1.580925627,1,3,1,3
9,1,65,folder/matchedM003.png,2,2.031742759,1,2,1,2
9,1,66,folder/matchedM019.png,1,1.932335174,1,2,2,2
9,1,67,folder/matchedM021SL.png,6,3.041710027,1,2,1,2
9,1,68,folder/matchedM016.png,1,2.101129387,1,2,2,2
9,1,69,folder/matchedM005IN.png,3,1.253420889,1,1,2,1
9,1,70,folder/matchedM016IN.png,4,2.401825226,1,3,1,3
9,1,71,folder/matchedM072IN.png,3,1.423330755,1,3,2,3
9,1,72,folder/matchedM003IN.png,4,8.301540667,1,3,1,3
9,1,73,folder/matchedM067.png,1,1.329803789,1,2,2,2
9,1,74,folder/matchedM004IN.png,4,2.890636252,1,2,1,2
9,1,75,folder/matchedM017.png,2,1.591713226,1,2,1,2
9,1,76,folder/matchedM020IN.png,4,2.51224283,1,4,1,4
9,1,77,folder/matchedM049.png,1,1.431891341,1,3,2,3
9,1,78,folder/matchedM004SL.png,6,2.87229315,1,1,1,1
9,1,79,folder/matchedM019IN.png,4,4.23280616,1,3,1,3
9,1,80,folder/matchedM002IN.png,3,1.490899681,1,3,2,3
9,1,81,folder/matchedM016SL.png,5,2.281678827,1,4,2,4
9,1,82,folder/matchedM002.png,2,1.231367284,1,4,1,4
9,1,83,folder/matchedM008.png,2,1.46141246,1,2,1,2
9,1,84,folder/matchedM017SR.png,6,5.607789389,1,4,1,4
9,1,85,folder/matchedM006IN.png,4,4.080951668,1,3,1,3
9,1,86,folder/matchedM005IN.png,4,3.391734047,1,3,1,3
9,1,87,folder/matchedM021IN.png,3,1.361809015,1,2,2,2
9,1,88,folder/matchedM024IN.png,3,1.680563691,1,1,2,1
9,1,89,folder/matchedM005.png,2,1.9976773,1,4,1,4
9,1,90,folder/matchedM021.png,2,1.590084588,1,1,1,1
9,1,91,folder/matchedM024SR.png,5,2.242154305,1,3,2,3
9,1,92,folder/matchedM024IN.png,4,1.965386802,1,2,1,2
9,1,93,folder/matchedM020.png,2,2.457247028,1,4,1,4
9,1,94,folder/matchedM019SL.png,6,9.224172854,1,1,1,1
9,1,95,folder/matchedM002SL.png,6,2.100802194,1,3,1,3
9,1,96,folder/matchedM004SL.png,5,3.822616563,1,1,2,1
12,1,1,folder/matchedM001IN.png,3,2.195613342,1,4,2,4
12,1,2,folder/matchedM008IN.png,4,1.299977364,1,2,1,2
12,1,3,folder/matchedM067.png,1,1.462248441,1,4,2,4
12,1,4,folder/matchedM016.png,2,1.142606796,1,2,1,2
12,1,5,folder/matchedM072SL.png,5,1.383099518,1,4,2,4
12,1,6,folder/matchedM017SR.png,6,1.39234288,1,2,1,2
12,1,7,folder/matchedM049SL.png,5,2.085648615,1,4,2,4
12,1,8,folder/matchedM008.png,2,1.332679037,1,4,1,4
12,1,9,folder/matchedM005.png,1,1.151350919,1,3,2,3
12,1,10,folder/matchedM020SR.png,5,1.292078167,1,1,2,1
12,1,11,folder/matchedM067SR.png,6,1.180654867,1,2,1,2
12,1,12,folder/matchedM002.png,2,1.081281911,1,1,1,1
12,1,13,folder/matchedM003.png,1,1.511678298,1,4,2,4
12,1,14,folder/matchedM024.png,1,1.04396121,1,1,2,1
12,1,15,folder/matchedM004.png,2,1.188777308,1,2,1,2
12,1,16,folder/matchedM008.png,1,1.899323982,1,4,2,4
12,1,17,folder/matchedM016SL.png,6,1.070304251,1,2,1,2
12,1,18,folder/matchedM024SR.png,5,2.811946188,1,3,2,3
12,1,19,folder/matchedM067IN.png,4,1.281712591,1,3,1,3
12,1,20,folder/matchedM003IN.png,4,1.721194296,1,1,1,1
12,1,21,folder/matchedM001SR.png,5,1.841630011,1,2,2,2
12,1,22,folder/matchedM005SR.png,5,1.191097119,1,1,2,1
12,1,23,folder/matchedM067SR.png,5,1.570909485,1,3,2,3
12,1,24,folder/matchedM003SR.png,5,3.000589095,1,3,2,3
12,1,25,folder/matchedM001IN.png,4,1.571308953,1,3,1,3
12,1,26,folder/matchedM020.png,1,1.791074922,1,3,2,3
12,1,27,folder/matchedM017IN.png,3,1.876953216,0,4,2,1
12,1,28,folder/matchedM019.png,1,1.295106419,1,1,2,1
12,1,29,folder/matchedM006IN.png,3,1.53425033,1,1,2,1
12,1,30,folder/matchedM004SL.png,5,1.8894396,1,2,2,2
12,1,31,folder/matchedM020IN.png,4,1.310406406,1,1,1,1
12,1,32,folder/matchedM002SL.png,6,1.331142441,1,1,1,1
12,1,33,folder/matchedM049IN.png,3,1.369419909,1,1,2,1
12,1,34,folder/matchedM001SR.png,6,1.090794151,1,2,1,2
12,1,35,folder/matchedM019SL.png,5,1.104562072,1,2,2,2
12,1,36,folder/matchedM020.png,2,1.289783299,1,4,1,4
12,1,37,folder/matchedM006IN.png,4,2.270988869,1,1,1,1
12,1,38,folder/matchedM004IN.png,4,1.279765944,1,1,1,1
12,1,39,folder/matchedM001.png,1,1.530409212,1,4,2,4
12,1,40,folder/matchedM016IN.png,4,1.045826489,1,2,1,2
12,1,41,folder/matchedM049.png,1,1.369986219,1,2,2,2
12,1,42,folder/matchedM019IN.png,4,1.480655529,1,1,1,1
12,1,43,folder/matchedM021IN.png,4,1.196599001,1,2,1,2
12,1,44,folder/matchedM008SR.png,5,2.080204958,0,1,2,4
12,1,45,folder/matchedM002.png,1,0.990093135,1,2,2,2
12,1,46,folder/matchedM024.png,2,1.021629838,1,1,1,1
12,1,47,folder/matchedM072IN.png,4,1.270774386,1,4,1,4
12,1,48,folder/matchedM006SL.png,6,1.90257262,1,2,1,2
12,1,49,folder/matchedM020SR.png,6,1.701921948,1,1,1,1
12,1,50,folder/matchedM072.png,2,1.760434829,1,4,1,4
12,1,51,folder/matchedM021SL.png,6,1.81744997,1,3,1,3
12,1,52,folder/matchedM004IN.png,3,2.020707547,1,1,2,1
12,1,53,folder/matchedM049IN.png,4,1.790609849,1,2,1,2
12,1,54,folder/matchedM017IN.png,4,1.619991489,1,3,1,3
12,1,55,folder/matchedM001.png,2,1.350155869,1,2,1,2
12,1,56,folder/matchedM016SL.png,5,2.380411135,1,3,2,3
12,1,57,folder/matchedM072IN.png,3,2.229874543,1,2,2,2
12,1,58,folder/matchedM008SR.png,6,1.419826135,1,2,1,2
12,1,59,folder/matchedM006.png,1,1.850456841,1,3,2,3
12,1,60,folder/matchedM004.png,1,1.570743162,1,3,2,3
12,1,61,folder/matchedM049.png,2,1.617888174,1,1,1,1
12,1,62,folder/matchedM049SL.png,6,1.548372994,1,3,1,3
12,1,63,folder/matchedM016.png,1,1.538931471,1,4,2,4
12,1,64,folder/matchedM017.png,2,1.114961155,1,2,1,2
12,1,65,folder/matchedM021.png,2,1.38002007,1,4,1,4
12,1,66,folder/matchedM003.png,2,1.429934132,1,3,1,3
12,1,67,folder/matchedM004SL.png,6,1.699879669,1,3,1,3
12,1,68,folder/matchedM024SR.png,6,1.509980687,1,4,1,4
12,1,69,folder/matchedM021.png,1,1.678747095,1,4,2,4
12,1,70,folder/matchedM005SR.png,6,1.330187347,1,1,1,1
12,1,71,folder/matchedM019SL.png,6,1.600029967,1,3,1,3
12,1,72,folder/matchedM005IN.png,3,3.067396999,1,2,2,2
12,1,73,folder/matchedM008IN.png,3,1.516432262,1,1,2,1
12,1,74,folder/matchedM016IN.png,3,1.600372492,1,3,2,3
12,1,75,folder/matchedM002IN.png,4,1.610292881,1,3,1,3
12,1,76,folder/matchedM002IN.png,3,1.251242204,1,4,2,4
12,1,77,folder/matchedM024IN.png,4,1.23938616,1,3,1,3
12,1,78,folder/matchedM017SR.png,5,2.212536165,1,3,2,3
12,1,79,folder/matchedM005.png,2,1.762815373,1,3,1,3
12,1,80,folder/matchedM002SL.png,5,2.42627249,1,3,2,3
12,1,81,folder/matchedM021SL.png,5,2.580950075,1,3,2,3
12,1,82,folder/matchedM024IN.png,3,2.580789384,1,3,2,3
12,1,83,folder/matchedM006.png,2,0.969101586,0,2,1,3
12,1,84,folder/matchedM005IN.png,4,1.759683508,1,1,1,1
12,1,85,folder/matchedM067.png,2,1.845793534,1,3,1,3
12,1,86,folder/matchedM003IN.png,3,2.655779078,1,1,2,1
12,1,87,folder/matchedM072SL.png,6,1.230395941,1,2,1,2
12,1,88,folder/matchedM017.png,1,1.319229675,1,2,2,2
12,1,89,folder/matchedM019IN.png,3,1.510235706,1,2,2,2
12,1,90,folder/matchedM019.png,2,1.250119084,1,2,1,2
12,1,91,folder/matchedM006SL.png,5,1.530052958,1,4,2,4
12,1,92,folder/matchedM067IN.png,3,1.730418316,1,3,2,3
12,1,93,folder/matchedM072.png,1,1.580314737,1,3,2,3
12,1,94,folder/matchedM020IN.png,3,1.129715801,1,2,2,2
12,1,95,folder/matchedM003SR.png,6,1.551335036,1,2,1,2
12,1,96,folder/matchedM021IN.png,3,1.700367852,1,4,2,4
13,1,1,folder/matchedM021IN.png,4,9.067069014,1,2,1,2
13,1,2,folder/matchedM067.png,2,7.039344887,1,4,1,4
13,1,3,folder/matchedM005SR.png,6,2.791440885,1,2,1,2
13,1,4,folder/matchedM001SR.png,5,3.882540464,1,2,2,2
13,1,5,folder/matchedM019SL.png,6,10.00253793,-1,4,1,0
13,1,6,folder/matchedM024.png,2,2.021892438,1,3,1,3
13,1,7,folder/matchedM021SL.png,6,5.978906409,1,3,1,3
13,1,8,folder/matchedM049.png,2,2.230573769,1,2,1,2
13,1,9,folder/matchedM003SR.png,5,4.021732623,1,1,2,1
13,1,10,folder/matchedM021.png,2,5.102886613,1,1,1,1
13,1,11,folder/matchedM016.png,1,3.020854117,1,3,2,3
13,1,12,folder/matchedM005SR.png,5,1.800864357,1,2,2,2
13,1,13,folder/matchedM019.png,2,2.030761951,1,2,1,2
13,1,14,folder/matchedM002IN.png,4,2.611414157,1,1,1,1
13,1,15,folder/matchedM024SR.png,5,1.770433425,1,4,2,4
13,1,16,folder/matchedM072SL.png,6,10.00364752,-1,1,1,0
13,1,17,folder/matchedM016IN.png,3,2.809123758,1,2,2,2
13,1,18,folder/matchedM003SR.png,6,4.991489422,1,2,1,2
13,1,19,folder/matchedM008IN.png,3,2.250338033,1,2,2,2
13,1,20,folder/matchedM020IN.png,3,1.410540198,1,4,2,4
13,1,21,folder/matchedM004.png,2,1.770833464,1,4,1,4
13,1,22,folder/matchedM004IN.png,3,1.519252031,1,3,2,3
13,1,23,folder/matchedM049IN.png,3,0.999998243,1,1,2,1
13,1,24,folder/matchedM017SR.png,5,1.346001354,1,4,2,4
13,1,25,folder/matchedM008.png,1,1.680241732,1,4,2,4
13,1,26,folder/matchedM019.png,1,1.558986666,1,2,2,2
13,1,27,folder/matchedM017IN.png,4,5.200877337,1,2,1,2
13,1,28,folder/matchedM021SL.png,5,1.878202967,1,1,2,1
13,1,29,folder/matchedM001SR.png,6,4.940494631,1,2,1,2
13,1,30,folder/matchedM072.png,1,1.778125284,1,4,2,4
13,1,31,folder/matchedM024IN.png,4,2.350497904,1,3,1,3
13,1,32,folder/matchedM001.png,2,4.400920879,1,3,1,3
13,1,33,folder/matchedM049IN.png,4,3.859598185,1,3,1,3
13,1,34,folder/matchedM067IN.png,4,3.158396752,1,2,1,2
13,1,35,folder/matchedM006SL.png,6,7.581983854,1,4,1,4
13,1,36,folder/matchedM019IN.png,3,1.740095161,1,2,2,2
13,1,37,folder/matchedM072SL.png,5,1.243926287,1,1,2,1
13,1,38,folder/matchedM072IN.png,4,3.170112364,1,2,1,2
13,1,39,folder/matchedM024IN.png,3,1.789822877,1,2,2,2
13,1,40,folder/matchedM067SR.png,5,2.189669356,1,3,2,3
13,1,41,folder/matchedM003.png,1,1.559658916,1,3,2,3
13,1,42,folder/matchedM024SR.png,6,3.066888049,1,3,1,3
13,1,43,folder/matchedM017IN.png,3,1.75940131,1,3,2,3
13,1,44,folder/matchedM016.png,2,2.369660452,1,4,1,4
13,1,45,folder/matchedM002.png,2,2.940116248,1,1,1,1
13,1,46,folder/matchedM020SR.png,6,2.944989148,1,2,1,2
13,1,47,folder/matchedM001IN.png,4,2.34965485,1,3,1,3
13,1,48,folder/matchedM002IN.png,3,1.838712447,1,3,2,3
13,1,49,folder/matchedM002SL.png,5,1.53935003,1,2,2,2
13,1,50,folder/matchedM019SL.png,5,2.588441488,1,3,2,3
13,1,51,folder/matchedM001.png,1,1.12483592,0,1,2,2
13,1,52,folder/matchedM005IN.png,4,2.649656043,1,3,1,3
13,1,53,folder/matchedM049SL.png,6,5.190665592,1,4,1,4
13,1,54,folder/matchedM006.png,1,1.457585093,1,4,2,4
13,1,55,folder/matchedM005IN.png,3,2.054604163,1,3,2,3
13,1,56,folder/matchedM008SR.png,5,2.318396635,1,3,2,3
13,1,57,folder/matchedM006IN.png,4,1.731287324,1,2,1,2
13,1,58,folder/matchedM001IN.png,3,2.31787322,1,2,2,2
13,1,59,folder/matchedM016SL.png,5,1.589092961,1,4,2,4
13,1,60,folder/matchedM004SL.png,5,1.886146875,1,1,2,1
13,1,61,folder/matchedM020.png,2,2.904675608,1,1,1,1
13,1,62,folder/matchedM020.png,1,1.459101084,1,3,2,3
13,1,63,folder/matchedM024.png,1,1.127378276,1,1,2,1
13,1,64,folder/matchedM008IN.png,4,3.639852273,1,1,1,1
13,1,65,folder/matchedM067SR.png,6,2.869765812,1,3,1,3
13,1,66,folder/matchedM017.png,1,1.819311569,1,1,2,1
13,1,67,folder/matchedM005.png,1,1.63985785,1,3,2,3
13,1,68,folder/matchedM020IN.png,4,2.569796946,1,2,1,2
13,1,69,folder/matchedM008SR.png,6,3.600514413,1,1,1,1
13,1,70,folder/matchedM072.png,2,3.128819787,1,4,1,4
13,1,71,folder/matchedM072IN.png,3,3.460345836,1,2,2,2
13,1,72,folder/matchedM049.png,1,1.651146054,1,3,2,3
13,1,73,folder/matchedM008.png,2,1.834920302,1,3,1,3
13,1,74,folder/matchedM021IN.png,3,2.468760086,1,2,2,2
13,1,75,folder/matchedM016IN.png,4,1.898787018,1,4,1,4
13,1,76,folder/matchedM005.png,2,1.626876709,1,2,1,2
13,1,77,folder/matchedM003.png,2,3.165494554,1,4,1,4
13,1,78,folder/matchedM049SL.png,5,1.798939067,1,4,2,4
13,1,79,folder/matchedM004SL.png,6,3.269565888,1,2,1,2
13,1,80,folder/matchedM006.png,2,1.497755668,1,2,1,2
13,1,81,folder/matchedM021.png,1,2.138891082,1,2,2,2
13,1,82,folder/matchedM019IN.png,4,2.158801549,1,4,1,4
13,1,83,folder/matchedM020SR.png,5,2.779155655,1,3,2,3
13,1,84,folder/matchedM016SL.png,6,8.446800351,1,4,1,4
13,1,85,folder/matchedM017.png,2,2.15803551,1,3,1,3
13,1,86,folder/matchedM006SL.png,5,2.108478323,1,2,2,2
13,1,87,folder/matchedM002.png,1,2.648368007,1,2,2,2
13,1,88,folder/matchedM003IN.png,3,4.419929701,1,2,2,2
13,1,89,folder/matchedM002SL.png,6,1.478421124,1,2,1,2
13,1,90,folder/matchedM067IN.png,3,2.844975009,1,1,2,1
13,1,91,folder/matchedM017SR.png,6,1.759188468,1,2,1,2
13,1,92,folder/matchedM004IN.png,4,1.368594803,1,3,1,3
13,1,93,folder/matchedM004.png,1,1.56705351,1,4,2,4
13,1,94,folder/matchedM003IN.png,4,1.249361579,1,3,1,3
13,1,95,folder/matchedM006IN.png,3,2.209727273,1,1,2,1
13,1,96,folder/matchedM067.png,1,1.667914224,1,4,2,4
14,1,1,folder/matchedM008.png,2,2.695240783,1,4,1,4
14,1,2,folder/matchedM008IN.png,4,1.677158093,1,2,1,2
14,1,3,folder/matchedM003SR.png,6,1.720807903,1,4,1,4
14,1,4,folder/matchedM008SR.png,5,1.660929655,1,4,2,4
14,1,5,folder/matchedM004IN.png,3,0.997715003,1,3,2,3
14,1,6,folder/matchedM072.png,1,1.310528342,1,1,2,1
14,1,7,folder/matchedM019SL.png,6,2.190667897,1,1,1,1
14,1,8,folder/matchedM016IN.png,4,0.909791506,1,2,1,2
14,1,9,folder/matchedM006SL.png,5,1.31209049,1,4,2,4
14,1,10,folder/matchedM006.png,1,0.989926054,1,2,2,2
14,1,11,folder/matchedM067.png,2,1.710137843,1,4,1,4
14,1,12,folder/matchedM024IN.png,3,1.366991192,1,2,2,2
14,1,13,folder/matchedM049SL.png,5,0.707211818,1,3,2,3
14,1,14,folder/matchedM017IN.png,4,1.453466661,1,2,1,2
14,1,15,folder/matchedM002.png,2,0.958182408,1,4,1,4
14,1,16,folder/matchedM001SR.png,5,1.488936665,1,1,2,1
14,1,17,folder/matchedM004.png,1,0.788634684,1,4,2,4
14,1,18,folder/matchedM067IN.png,4,1.139470345,1,3,1,3
14,1,19,folder/matchedM003IN.png,3,1.039967085,0,3,2,4
14,1,20,folder/matchedM003IN.png,4,1.279784155,1,1,1,1
14,1,21,folder/matchedM001IN.png,4,0.748338843,1,2,1,2
14,1,22,folder/matchedM049.png,1,1.337832413,1,4,2,4
14,1,23,folder/matchedM020IN.png,4,1.735698526,1,1,1,1
14,1,24,folder/matchedM049.png,2,1.889660137,1,3,1,3
14,1,25,folder/matchedM021SL.png,6,1.774951179,1,2,1,2
14,1,26,folder/matchedM019.png,2,1.289283752,1,1,1,1
14,1,27,folder/matchedM008.png,1,1.538789115,1,2,2,2
14,1,28,folder/matchedM049SL.png,6,2.74908774,1,4,1,4
14,1,29,folder/matchedM006IN.png,3,1.418290866,1,2,2,2
14,1,30,folder/matchedM016.png,2,1.342996598,1,2,1,2
14,1,31,folder/matchedM021.png,1,2.068697044,1,2,2,2
14,1,32,folder/matchedM024IN.png,4,0.987673588,1,1,1,1
14,1,33,folder/matchedM049IN.png,4,3.183955533,1,2,1,2
14,1,34,folder/matchedM001IN.png,3,1.178720441,1,3,2,3
14,1,35,folder/matchedM072IN.png,3,1.696912977,0,3,2,4
14,1,36,folder/matchedM004IN.png,4,1.18799831,1,1,1,1
14,1,37,folder/matchedM067IN.png,3,1.858622958,1,3,2,3
14,1,38,folder/matchedM072.png,2,1.938493184,1,3,1,3
14,1,39,folder/matchedM067SR.png,6,1.253964379,1,1,1,1
14,1,40,folder/matchedM005.png,1,1.838297486,1,1,2,1
14,1,41,folder/matchedM016.png,1,1.43805075,1,4,2,4
14,1,42,folder/matchedM021IN.png,4,2.545037959,1,2,1,2
14,1,43,folder/matchedM008SR.png,6,1.517946919,1,3,1,3
14,1,44,folder/matchedM072IN.png,4,1.427448825,1,4,1,4
14,1,45,folder/matchedM001.png,1,1.457586315,1,4,2,4
14,1,46,folder/matchedM006IN.png,4,1.428564844,1,2,1,2
14,1,47,folder/matchedM017SR.png,6,0.898148138,1,4,1,4
14,1,48,folder/matchedM002IN.png,3,1.34886358,1,2,2,2
14,1,49,folder/matchedM004SL.png,6,1.24782166,1,2,1,2
14,1,50,folder/matchedM016SL.png,5,1.30821338,1,2,2,2
14,1,51,folder/matchedM021.png,2,1.368170338,1,4,1,4
14,1,52,folder/matchedM049IN.png,3,1.198039368,1,2,2,2
14,1,53,folder/matchedM001.png,2,1.103304663,1,4,1,4
14,1,54,folder/matchedM005SR.png,5,1.968467535,1,2,2,2
14,1,55,folder/matchedM067SR.png,5,0.747642368,1,1,2,1
14,1,56,folder/matchedM024SR.png,5,0.618180836,1,1,2,1
14,1,57,folder/matchedM002SL.png,5,0.606546982,1,1,2,1
14,1,58,folder/matchedM024.png,2,1.197199563,1,3,1,3
14,1,59,folder/matchedM002.png,1,1.240515498,1,3,2,3
14,1,60,folder/matchedM004.png,2,1.197289397,1,1,1,1
14,1,61,folder/matchedM020IN.png,3,2.158065025,1,1,2,1
14,1,62,folder/matchedM020SR.png,5,2.239065521,1,4,2,4
14,1,63,folder/matchedM019SL.png,5,1.797914691,1,3,2,3
14,1,64,folder/matchedM001SR.png,6,2.468183919,1,1,1,1
14,1,65,folder/matchedM019.png,1,1.146318967,1,3,2,3
14,1,66,folder/matchedM017IN.png,3,1.398345226,1,2,2,2
14,1,67,folder/matchedM072SL.png,5,1.513206522,1,1,2,1
14,1,68,folder/matchedM021SL.png,5,1.418541301,1,3,2,3
14,1,69,folder/matchedM006.png,2,1.193559392,1,2,1,2
14,1,70,folder/matchedM017.png,1,2.087654018,1,1,2,1
14,1,71,folder/matchedM019IN.png,3,2.253024136,0,4,2,1
14,1,72,folder/matchedM024.png,1,0.826655804,1,3,2,3
14,1,73,folder/matchedM067.png,1,0.658093711,1,3,2,3
14,1,74,folder/matchedM003SR.png,5,0.843255522,1,3,2,3
14,1,75,folder/matchedM024SR.png,6,2.108768232,1,2,1,2
14,1,76,folder/matchedM020.png,1,1.948145675,1,4,2,4
14,1,77,folder/matchedM019IN.png,4,1.227738867,1,3,1,3
14,1,78,folder/matchedM005IN.png,3,1.618415875,0,4,2,1
14,1,79,folder/matchedM017.png,2,3.708397865,1,3,1,3
14,1,80,folder/matchedM003.png,1,0.917814564,1,4,2,4
14,1,81,folder/matchedM003.png,2,0.90806273,1,4,1,4
14,1,82,folder/matchedM016SL.png,6,0.69263317,1,4,1,4
14,1,83,folder/matchedM020SR.png,6,0.688209863,1,3,1,3
14,1,84,folder/matchedM008IN.png,3,1.657984575,1,4,2,4
14,1,85,folder/matchedM004SL.png,5,0.587504152,1,4,2,4
14,1,86,folder/matchedM002IN.png,4,1.298123653,1,4,1,4
14,1,87,folder/matchedM002SL.png,6,0.607549622,1,4,1,4
14,1,88,folder/matchedM017SR.png,5,1.363218112,1,4,2,4
14,1,89,folder/matchedM072SL.png,6,1.42679623,1,3,1,3
14,1,90,folder/matchedM005SR.png,6,1.418237261,1,2,1,2
14,1,91,folder/matchedM021IN.png,3,1.457683988,1,1,2,1
14,1,92,folder/matchedM020.png,2,1.367993004,1,2,1,2
14,1,93,folder/matchedM005IN.png,4,1.176183078,1,2,1,2
14,1,94,folder/matchedM005.png,2,1.027746895,1,4,1,4
14,1,95,folder/matchedM006SL.png,6,2.369773252,1,2,1,2
14,1,96,folder/matchedM016IN.png,3,0.677805254,1,2,2,2
15,1,1,folder/matchedM049.png,1,3.864095296,1,3,2,3
15,1,2,folder/matchedM006SL.png,6,2.572088362,1,2,1,2
15,1,3,folder/matchedM020.png,1,2.063279274,1,4,2,4
15,1,4,folder/matchedM072IN.png,4,3.102155792,1,1,1,1
15,1,5,folder/matchedM002.png,1,2.533457234,1,3,2,3
15,1,6,folder/matchedM072IN.png,3,2.265595531,1,4,2,4
15,1,7,folder/matchedM003IN.png,3,4.395592905,1,2,2,2
15,1,8,folder/matchedM005IN.png,4,3.923278822,1,2,1,2
15,1,9,folder/matchedM004IN.png,3,6.070992102,1,3,2,3
15,1,10,folder/matchedM002SL.png,5,2.228682163,1,2,2,2
15,1,11,folder/matchedM005SR.png,6,2.192158159,1,3,1,3
15,1,12,folder/matchedM072.png,2,1.93685611,1,3,1,3
15,1,13,folder/matchedM016IN.png,4,3.238093117,1,3,1,3
15,1,14,folder/matchedM001.png,1,2.705842759,1,2,2,2
15,1,15,folder/matchedM017SR.png,6,4.670837645,1,1,1,1
15,1,16,folder/matchedM049SL.png,6,1.458930438,1,1,1,1
15,1,17,folder/matchedM016IN.png,3,4.297113216,1,4,2,4
15,1,18,folder/matchedM001IN.png,4,10.00247484,-1,4,1,0
15,1,19,folder/matchedM024.png,2,1.338908097,1,4,1,4
15,1,20,folder/matchedM002SL.png,6,2.265256874,1,2,1,2
15,1,21,folder/matchedM024.png,1,4.630469459,1,4,2,4
15,1,22,folder/matchedM017IN.png,3,6.738242239,1,3,2,3
15,1,23,folder/matchedM072SL.png,5,1.704474066,1,2,2,2
15,1,24,folder/matchedM024SR.png,5,4.327697156,1,4,2,4
15,1,25,folder/matchedM005.png,1,2.029755319,1,1,2,1
15,1,26,folder/matchedM072SL.png,6,4.590533432,1,3,1,3
15,1,27,folder/matchedM016.png,2,1.572575723,1,3,1,3
15,1,28,folder/matchedM049IN.png,3,4.027111999,1,1,2,1
15,1,29,folder/matchedM020IN.png,3,3.702878385,1,1,2,1
15,1,30,folder/matchedM019IN.png,4,3.422862433,1,1,1,1
15,1,31,folder/matchedM024IN.png,3,4.903314249,1,3,2,3
15,1,32,folder/matchedM019IN.png,3,7.662497238,1,4,2,4
15,1,33,folder/matchedM067.png,2,2.691075666,1,3,1,3
15,1,34,folder/matchedM016SL.png,6,2.2602977,1,1,1,1
15,1,35,folder/matchedM001SR.png,6,2.164811482,1,2,1,2
15,1,36,folder/matchedM003.png,1,3.595413657,1,3,2,3
15,1,37,folder/matchedM017SR.png,5,1.92470112,1,1,2,1
15,1,38,folder/matchedM020SR.png,5,3.004449799,1,2,2,2
15,1,39,folder/matchedM019SL.png,6,3.490924847,1,2,1,2
15,1,40,folder/matchedM004.png,2,2.862440184,1,2,1,2
15,1,41,folder/matchedM017.png,2,1.962359929,1,4,1,4
15,1,42,folder/matchedM001.png,2,2.857064996,1,2,1,2
15,1,43,folder/matchedM067SR.png,5,1.63857187,1,2,2,2
15,1,44,folder/matchedM072.png,1,4.103501988,1,4,2,4
15,1,45,folder/matchedM003SR.png,5,9.359430915,1,4,2,4
15,1,46,folder/matchedM008.png,1,4.204443853,1,4,2,4
15,1,47,folder/matchedM002IN.png,4,5.170554958,1,4,1,4
15,1,48,folder/matchedM021IN.png,4,9.06844308,1,4,1,4
15,1,49,folder/matchedM008SR.png,5,6.62504872,1,3,2,3
15,1,50,folder/matchedM001IN.png,3,3.639619014,1,3,2,3
15,1,51,folder/matchedM002.png,2,1.824764737,1,4,1,4
15,1,52,folder/matchedM020SR.png,6,2.024655668,1,4,1,4
15,1,53,folder/matchedM004.png,1,1.940627556,1,4,2,4
15,1,54,folder/matchedM006.png,1,1.196768813,1,2,2,2
15,1,55,folder/matchedM008SR.png,6,1.906755346,1,1,1,1
15,1,56,folder/matchedM067IN.png,4,1.972413243,1,3,1,3
15,1,57,folder/matchedM067.png,1,1.074410954,1,2,2,2
15,1,58,folder/matchedM006SL.png,5,1.790952272,1,2,2,2
15,1,59,folder/matchedM003IN.png,4,4.006588809,1,2,1,2
15,1,60,folder/matchedM004SL.png,5,1.371168053,1,2,2,2
15,1,61,folder/matchedM004IN.png,4,3.201756085,1,2,1,2
15,1,62,folder/matchedM019SL.png,5,4.198483595,1,3,2,3
15,1,63,folder/matchedM049SL.png,5,3.438049439,1,3,2,3
15,1,64,folder/matchedM017.png,1,1.557113996,1,3,2,3
15,1,65,folder/matchedM001SR.png,5,7.188555247,1,1,2,1
15,1,66,folder/matchedM002IN.png,3,2.272784058,1,3,2,3
15,1,67,folder/matchedM016SL.png,5,2.557072326,1,4,2,4
15,1,68,folder/matchedM021SL.png,6,0.961506257,1,1,1,1
15,1,69,folder/matchedM067IN.png,3,4.856006802,1,1,2,1
15,1,70,folder/matchedM049.png,2,1.339718985,1,4,1,4
15,1,71,folder/matchedM004SL.png,6,0.837063281,1,1,1,1
15,1,72,folder/matchedM003SR.png,6,10.00128822,-1,2,1,0
15,1,73,folder/matchedM008.png,2,1.239890429,1,2,1,2
15,1,74,folder/matchedM021SL.png,5,2.234847946,1,2,2,2
15,1,75,folder/matchedM024SR.png,6,1.691071588,1,2,1,2
15,1,76,folder/matchedM006.png,2,0.807900968,1,1,1,1
15,1,77,folder/matchedM003.png,2,1.357773571,1,1,1,1
15,1,78,folder/matchedM021.png,2,2.123027121,1,2,1,2
15,1,79,folder/matchedM021IN.png,3,4.337505226,1,2,2,2
15,1,80,folder/matchedM016.png,1,5.704140833,1,1,2,1
15,1,81,folder/matchedM006IN.png,4,1.32509009,1,1,1,1
15,1,82,folder/matchedM049IN.png,4,3.106344987,1,4,1,4
15,1,83,folder/matchedM017IN.png,4,3.473104535,1,3,1,3
15,1,84,folder/matchedM020.png,2,1.590428467,1,3,1,3
15,1,85,folder/matchedM005IN.png,3,2.273509097,1,1,2,1
15,1,86,folder/matchedM020IN.png,4,1.839152201,1,4,1,4
15,1,87,folder/matchedM005SR.png,5,1.102491026,1,3,2,3
15,1,88,folder/matchedM067SR.png,6,0.757941722,1,1,1,1
15,1,89,folder/matchedM006IN.png,3,5.30316252,1,1,2,1
15,1,90,folder/matchedM024IN.png,4,3.039027273,1,3,1,3
15,1,91,folder/matchedM021.png,1,1.290875916,1,2,2,2
15,1,92,folder/matchedM005.png,2,1.691120829,1,4,1,4
15,1,93,folder/matchedM008IN.png,3,3.005687532,1,1,2,1
15,1,94,folder/matchedM008IN.png,4,3.790527823,1,2,1,2
15,1,95,folder/matchedM019.png,1,4.590494188,1,4,2,4
15,1,96,folder/matchedM019.png,2,7.135654858,1,3,1,3
16,1,1,folder/matchedM049IN.png,4,6.907863418,1,1,1,1
16,1,2,folder/matchedM005.png,1,2.806837011,1,4,2,4
16,1,3,folder/matchedM021IN.png,3,7.388388479,1,4,2,4
16,1,4,folder/matchedM005IN.png,4,8.089154898,1,3,1,3
16,1,5,folder/matchedM004.png,1,2.291566998,1,2,2,2
16,1,6,folder/matchedM005IN.png,3,1.940154839,1,3,2,3
16,1,7,folder/matchedM017SR.png,6,10.01968936,-1,3,1,0
16,1,8,folder/matchedM019SL.png,5,8.588515626,1,2,2,2
16,1,9,folder/matchedM072IN.png,3,1.624940686,1,3,2,3
16,1,10,folder/matchedM067SR.png,6,10.02933669,-1,3,1,0
16,1,11,folder/matchedM005SR.png,5,3.438399415,1,1,2,1
16,1,12,folder/matchedM049IN.png,3,1.732554052,1,4,2,4
16,1,13,folder/matchedM004.png,2,4.030966526,1,3,1,3
16,1,14,folder/matchedM021.png,2,2.232084238,1,4,1,4
16,1,15,folder/matchedM021.png,1,2.091390708,1,1,2,1
16,1,16,folder/matchedM016SL.png,5,6.023365746,1,1,2,1
16,1,17,folder/matchedM008SR.png,6,10.00185516,-1,4,1,0
16,1,18,folder/matchedM020IN.png,3,6.522161099,1,4,2,4
16,1,19,folder/matchedM005.png,2,2.09068212,1,2,1,2
16,1,20,folder/matchedM019.png,2,10.00125397,-1,3,1,0
16,1,21,folder/matchedM002.png,1,1.107301284,1,2,2,2
16,1,22,folder/matchedM049SL.png,5,10.00240992,-1,1,2,0
16,1,23,folder/matchedM024.png,2,8.487989046,1,3,1,3
16,1,24,folder/matchedM003SR.png,5,8.05444279,1,1,2,1
16,1,25,folder/matchedM002SL.png,5,1.70399823,1,3,2,3
16,1,26,folder/matchedM017IN.png,4,8.995793363,1,4,1,4
16,1,27,folder/matchedM024IN.png,3,2.623669963,1,2,2,2
16,1,28,folder/matchedM016.png,2,1.85838373,1,4,1,4
16,1,29,folder/matchedM006SL.png,6,3.590988752,1,4,1,4
16,1,30,folder/matchedM021SL.png,6,10.02136879,-1,2,1,0
16,1,31,folder/matchedM003.png,2,5.300241414,1,3,1,3
16,1,32,folder/matchedM006SL.png,5,10.01954243,-1,3,2,0
16,1,33,folder/matchedM067IN.png,4,1.50589277,1,3,1,3
16,1,34,folder/matchedM021SL.png,5,4.656530644,1,4,2,4
16,1,35,folder/matchedM004SL.png,5,2.006529199,1,1,2,1
16,1,36,folder/matchedM020SR.png,5,1.524749281,1,3,2,3
16,1,37,folder/matchedM001.png,2,2.706656956,1,1,1,1
16,1,38,folder/matchedM001SR.png,6,4.872753554,1,3,1,3
16,1,39,folder/matchedM020.png,2,6.356322949,1,2,1,2
16,1,40,folder/matchedM067.png,2,2.689736964,1,1,1,1
16,1,41,folder/matchedM019.png,1,1.7578743,1,1,2,1
16,1,42,folder/matchedM017.png,2,2.938945895,1,1,1,1
16,1,43,folder/matchedM004SL.png,6,8.522246994,0,3,1,2
16,1,44,folder/matchedM003IN.png,3,5.502930188,1,3,2,3
16,1,45,folder/matchedM006.png,1,1.06611757,1,3,2,3
16,1,46,folder/matchedM049.png,2,3.624047803,1,1,1,1
16,1,47,folder/matchedM017.png,1,1.670829954,1,2,2,2
16,1,48,folder/matchedM049.png,1,1.361627001,1,1,2,1
16,1,49,folder/matchedM002.png,2,1.857723446,1,2,1,2
16,1,50,folder/matchedM001.png,1,1.457884235,1,1,2,1
16,1,51,folder/matchedM008IN.png,4,7.42114023,1,3,1,3
16,1,52,folder/matchedM001IN.png,3,9.403150578,1,4,2,4
16,1,53,folder/matchedM072.png,1,2.238797345,1,4,2,4
16,1,54,folder/matchedM001IN.png,4,4.023423358,1,3,1,3
16,1,55,folder/matchedM016SL.png,6,10.00364434,-1,2,1,0
16,1,56,folder/matchedM072IN.png,4,10.00097707,-1,2,1,0
16,1,57,folder/matchedM016IN.png,3,2.036705824,1,4,2,4
16,1,58,folder/matchedM001SR.png,5,4.257010495,1,2,2,2
16,1,59,folder/matchedM067IN.png,3,2.039521611,1,3,2,3
16,1,60,folder/matchedM017SR.png,5,3.389905062,1,4,2,4
16,1,61,folder/matchedM016.png,1,2.704808831,1,4,2,4
16,1,62,folder/matchedM008IN.png,3,3.823413288,1,4,2,4
16,1,63,folder/matchedM002IN.png,3,1.465623147,1,1,2,1
16,1,64,folder/matchedM004IN.png,4,7.088874382,1,3,1,3
16,1,65,folder/matchedM021IN.png,4,5.054992443,1,4,1,4
16,1,66,folder/matchedM002IN.png,4,6.069108428,1,3,1,3
16,1,67,folder/matchedM024SR.png,6,1.956778186,1,1,1,1
16,1,68,folder/matchedM006.png,2,4.53707406,1,3,1,3
16,1,69,folder/matchedM019SL.png,6,8.870054539,1,3,1,3
16,1,70,folder/matchedM006IN.png,3,10.00101882,-1,3,2,0
16,1,71,folder/matchedM003IN.png,4,1.407072206,1,1,1,1
16,1,72,folder/matchedM024SR.png,5,1.858177941,1,3,2,3
16,1,73,folder/matchedM002SL.png,6,2.490963051,1,4,1,4
16,1,74,folder/matchedM017IN.png,3,2.773351909,1,1,2,1
16,1,75,folder/matchedM067.png,1,2.370210145,1,4,2,4
16,1,76,folder/matchedM049SL.png,6,10.00325461,-1,4,1,0
16,1,77,folder/matchedM005SR.png,6,10.00176193,-1,2,1,0
16,1,78,folder/matchedM067SR.png,5,2.271997655,1,4,2,4
16,1,79,folder/matchedM008.png,1,1.057194391,1,2,2,2
16,1,80,folder/matchedM072SL.png,5,1.104619489,1,2,2,2
16,1,81,folder/matchedM072SL.png,6,1.324576231,1,4,1,4
16,1,82,folder/matchedM020.png,1,1.457185727,1,2,2,2
16,1,83,folder/matchedM003.png,1,2.106981268,1,3,2,3
16,1,84,folder/matchedM008SR.png,5,1.573532223,1,3,2,3
16,1,85,folder/matchedM020IN.png,4,2.073881259,0,2,1,3
16,1,86,folder/matchedM006IN.png,4,1.723913944,1,4,1,4
16,1,87,folder/matchedM020SR.png,6,2.274175937,1,1,1,1
16,1,88,folder/matchedM024IN.png,4,2.324058194,1,4,1,4
16,1,89,folder/matchedM019IN.png,3,2.125203492,1,2,2,2
16,1,90,folder/matchedM016IN.png,4,1.79076278,1,4,1,4
16,1,91,folder/matchedM008.png,2,1.341067969,1,1,1,1
16,1,92,folder/matchedM024.png,1,1.057143452,1,2,2,2
16,1,93,folder/matchedM003SR.png,6,10.0236556,-1,3,1,0
16,1,94,folder/matchedM072.png,2,1.307022693,1,4,1,4
16,1,95,folder/matchedM019IN.png,4,3.740106158,1,1,1,1
16,1,96,folder/matchedM004IN.png,3,6.236987444,1,1,2,1
1,2,1,folder/matchedM005SR.png,6,1.284382145,1,1,1,1
1,2,2,folder/matchedM019.png,2,1.184771283,1,2,1,2
1,2,3,folder/matchedM008IN.png,3,0.990626459,1,4,2,4
1,2,4,folder/matchedM024SR.png,6,1.249849095,1,1,1,1
1,2,5,folder/matchedM020SR.png,6,1.288665111,1,1,1,1
1,2,6,folder/matchedM024.png,2,1.467102784,1,3,1,3
1,2,7,folder/matchedM067IN.png,4,1.789806195,1,3,1,3
1,2,8,folder/matchedM016IN.png,3,1.178149834,1,1,2,1
1,2,9,folder/matchedM019SL.png,6,2.718144371,1,3,1,3
1,2,10,folder/matchedM001.png,1,1.039964316,1,1,2,1
1,2,11,folder/matchedM049SL.png,6,1.178133804,1,1,1,1
1,2,12,folder/matchedM005SR.png,5,0.872888396,1,4,2,4
1,2,13,folder/matchedM008IN.png,4,1.127445735,1,1,1,1
1,2,14,folder/matchedM003SR.png,6,4.877543502,1,4,1,4
1,2,15,folder/matchedM049SL.png,5,1.136086921,1,4,2,4
1,2,16,folder/matchedM004.png,2,1.017650551,1,1,1,1
1,2,17,folder/matchedM019.png,1,1.316906593,1,4,2,4
1,2,18,folder/matchedM006SL.png,5,1.149329135,1,4,2,4
1,2,19,folder/matchedM001SR.png,5,2.086219302,1,2,2,2
1,2,20,folder/matchedM017IN.png,3,1.147587181,1,3,2,3
1,2,21,folder/matchedM016.png,1,1.02242775,1,1,2,1
1,2,22,folder/matchedM002SL.png,5,1.085902006,1,4,2,4
1,2,23,folder/matchedM016SL.png,6,1.093227514,1,1,1,1
1,2,24,folder/matchedM067.png,1,1.126879427,1,4,2,4
1,2,25,folder/matchedM008.png,2,1.154658506,1,2,1,2
1,2,26,folder/matchedM006.png,1,1.005945131,1,1,2,1
1,2,27,folder/matchedM049.png,1,1.000397882,1,4,2,4
1,2,28,folder/matchedM006SL.png,6,0.855814041,1,4,1,4
1,2,29,folder/matchedM072IN.png,3,0.964708566,1,3,2,3
1,2,30,folder/matchedM021SL.png,5,1.33268143,1,4,2,4
1,2,31,folder/matchedM019IN.png,3,1.262904359,1,3,2,3
1,2,32,folder/matchedM003IN.png,4,2.25600418,1,1,1,1
1,2,33,folder/matchedM067SR.png,5,1.06703872,1,4,2,4
1,2,34,folder/matchedM021SL.png,6,2.35412853,1,2,1,2
1,2,35,folder/matchedM067SR.png,6,1.636149348,1,2,1,2
1,2,36,folder/matchedM016IN.png,4,2.296062995,1,1,1,1
1,2,37,folder/matchedM003SR.png,5,1.50642845,1,2,2,2
1,2,38,folder/matchedM024IN.png,4,1.155590781,1,2,1,2
1,2,39,folder/matchedM072.png,2,1.916018216,1,1,1,1
1,2,40,folder/matchedM017IN.png,4,2.325669046,1,1,1,1
1,2,41,folder/matchedM017.png,1,2.353322731,0,3,2,4
1,2,42,folder/matchedM006IN.png,3,2.274928935,1,1,2,1
1,2,43,folder/matchedM019IN.png,4,1.196835351,1,4,1,4
1,2,44,folder/matchedM008.png,1,1.671310705,1,2,2,2
1,2,45,folder/matchedM067IN.png,3,1.824070961,1,2,2,2
1,2,46,folder/matchedM001SR.png,6,2.044946541,1,3,1,3
1,2,47,folder/matchedM020.png,2,1.354818644,1,1,1,1
1,2,48,folder/matchedM002IN.png,3,1.785336065,1,1,2,1
1,2,49,folder/matchedM072IN.png,4,1.643929973,1,2,1,2
1,2,50,folder/matchedM001.png,2,0.908281353,1,4,1,4
1,2,51,folder/matchedM006IN.png,4,1.344809581,0,3,1,2
1,2,52,folder/matchedM005.png,1,1.144848614,1,3,2,3
1,2,53,folder/matchedM024.png,1,1.205013288,1,3,2,3
1,2,54,folder/matchedM002.png,2,0.946024568,1,2,1,2
1,2,55,folder/matchedM005.png,2,1.113475136,1,2,1,2
1,2,56,folder/matchedM017SR.png,5,0.865004671,1,3,2,3
1,2,57,folder/matchedM003.png,2,1.314078507,1,3,1,3
1,2,58,folder/matchedM002.png,1,1.125257905,1,4,2,4
1,2,59,folder/matchedM021IN.png,4,1.393337068,1,1,1,1
1,2,60,folder/matchedM049.png,2,0.993855928,1,4,1,4
1,2,61,folder/matchedM016SL.png,5,1.014568069,1,2,2,2
1,2,62,folder/matchedM072.png,1,1.015100727,1,1,2,1
1,2,63,folder/matchedM003.png,1,1.495876916,1,3,2,3
1,2,64,folder/matchedM067.png,2,1.394884978,1,2,1,2
1,2,65,folder/matchedM017.png,2,1.305399994,1,4,1,4
1,2,66,folder/matchedM004.png,1,0.986045507,0,3,2,2
1,2,67,folder/matchedM072SL.png,5,1.393046747,1,1,2,1
1,2,68,folder/matchedM001IN.png,4,1.413246805,1,3,1,3
1,2,69,folder/matchedM024IN.png,3,0.963019578,1,4,2,4
1,2,70,folder/matchedM020.png,1,0.922488308,1,4,2,4
1,2,71,folder/matchedM008SR.png,6,1.985989065,0,2,1,1
1,2,72,folder/matchedM021.png,1,1.822227466,1,2,2,2
1,2,73,folder/matchedM002SL.png,6,1.775120962,1,3,1,3
1,2,74,folder/matchedM021IN.png,3,2.047138484,1,2,2,2
1,2,75,folder/matchedM004IN.png,4,1.554994884,1,1,1,1
1,2,76,folder/matchedM021.png,2,1.065500344,1,1,1,1
1,2,77,folder/matchedM020IN.png,3,0.985842076,1,4,2,4
1,2,78,folder/matchedM016.png,2,1.035639099,1,3,1,3
1,2,79,folder/matchedM004IN.png,3,1.396045465,1,1,2,1
1,2,80,folder/matchedM005IN.png,4,3.056816025,1,4,1,4
1,2,81,folder/matchedM049IN.png,3,1.147501396,1,3,2,3
1,2,82,folder/matchedM002IN.png,4,1.005059002,1,1,1,1
1,2,83,folder/matchedM005IN.png,3,1.362360831,1,4,2,4
1,2,84,folder/matchedM003IN.png,3,1.217265212,1,4,2,4
1,2,85,folder/matchedM004SL.png,5,1.477339327,1,1,2,1
1,2,86,folder/matchedM024SR.png,5,2.033889879,1,3,2,3
1,2,87,folder/matchedM020SR.png,5,2.706543232,1,3,2,3
1,2,88,folder/matchedM017SR.png,6,1.805728882,1,2,1,2
1,2,89,folder/matchedM020IN.png,4,1.445989003,1,3,1,3
1,2,90,folder/matchedM049IN.png,4,1.233513979,1,2,1,2
1,2,91,folder/matchedM006.png,2,1.222670839,1,2,1,2
1,2,92,folder/matchedM008SR.png,5,1.134867159,1,4,2,4
1,2,93,folder/matchedM001IN.png,3,1.345940772,1,2,2,2
1,2,94,folder/matchedM019SL.png,5,1.113276389,1,3,2,3
1,2,95,folder/matchedM072SL.png,6,3.013668273,1,4,1,4
1,2,96,folder/matchedM004SL.png,6,1.566784585,1,4,1,4
2,2,1,folder/matchedM049.png,1,1.317236992,1,2,2,2
2,2,2,folder/matchedM017SR.png,5,2.755994724,1,3,2,3
2,2,3,folder/matchedM008SR.png,6,0.675573234,1,4,1,4
2,2,4,folder/matchedM020.png,1,1.036725531,1,2,2,2
2,2,5,folder/matchedM020SR.png,6,0.967955896,1,1,1,1
2,2,6,folder/matchedM019.png,2,0.740008081,1,4,1,4
2,2,7,folder/matchedM002SL.png,6,0.837138231,1,1,1,1
2,2,8,folder/matchedM002IN.png,3,2.126670794,1,4,2,4
2,2,9,folder/matchedM021.png,1,2.014998455,1,3,2,3
2,2,10,folder/matchedM003IN.png,3,2.480343356,1,3,2,3
2,2,11,folder/matchedM020IN.png,3,2.025101596,1,4,2,4
2,2,12,folder/matchedM072SL.png,5,1.585801468,1,4,2,4
2,2,13,folder/matchedM049SL.png,6,0.975842681,1,3,1,3
2,2,14,folder/matchedM001IN.png,3,1.166964704,1,2,2,2
2,2,15,folder/matchedM017IN.png,3,2.008138105,1,2,2,2
2,2,16,folder/matchedM005SR.png,5,3.253191599,1,4,2,4
2,2,17,folder/matchedM024SR.png,6,0.885931698,1,3,1,3
2,2,18,folder/matchedM005IN.png,3,4.746552958,1,4,2,4
2,2,19,folder/matchedM001IN.png,4,0.705675984,1,4,1,4
2,2,20,folder/matchedM001.png,2,0.751922492,1,4,1,4
2,2,21,folder/matchedM002.png,1,1.935895619,1,3,2,3
2,2,22,folder/matchedM019SL.png,6,0.794536427,1,4,1,4
2,2,23,folder/matchedM006IN.png,4,1.796622037,0,1,1,4
2,2,24,folder/matchedM067.png,2,1.574073766,1,2,1,2
2,2,25,folder/matchedM005.png,1,2.917064995,0,4,2,1
2,2,26,folder/matchedM006SL.png,5,2.155288995,1,4,2,4
2,2,27,folder/matchedM021.png,2,1.383277644,1,1,1,1
2,2,28,folder/matchedM067IN.png,4,0.835203237,1,4,1,4
2,2,29,folder/matchedM002SL.png,5,2.275970529,1,3,2,3
2,2,30,folder/matchedM004IN.png,4,0.754840636,1,4,1,4
2,2,31,folder/matchedM016SL.png,5,2.003044555,1,2,2,2
2,2,32,folder/matchedM016IN.png,4,1.665860139,1,1,1,1
2,2,33,folder/matchedM003SR.png,5,1.445351466,1,1,2,1
2,2,34,folder/matchedM001SR.png,6,0.617687867,1,4,1,4
2,2,35,folder/matchedM021SL.png,5,2.305035739,0,3,2,2
2,2,36,folder/matchedM017IN.png,4,0.566029146,1,4,1,4
2,2,37,folder/matchedM024IN.png,4,2.714028964,1,2,1,2
2,2,38,folder/matchedM067SR.png,5,2.284019114,1,3,2,3
2,2,39,folder/matchedM067.png,1,1.604035191,1,2,2,2
2,2,40,folder/matchedM049.png,2,1.262172315,1,3,1,3
2,2,41,folder/matchedM021IN.png,3,1.734407081,1,2,2,2
2,2,42,folder/matchedM049IN.png,4,1.574166104,1,1,1,1
2,2,43,folder/matchedM020IN.png,4,1.933733401,1,2,1,2
2,2,44,folder/matchedM001SR.png,5,1.423570855,1,1,2,1
2,2,45,folder/matchedM002IN.png,4,0.755851967,1,4,1,4
2,2,46,folder/matchedM005SR.png,6,1.334778517,1,3,1,3
2,2,47,folder/matchedM072IN.png,3,0.877613776,1,1,2,1
2,2,48,folder/matchedM019IN.png,4,0.66715929,1,4,1,4
2,2,49,folder/matchedM024SR.png,5,1.82651374,0,3,2,2
2,2,50,folder/matchedM072IN.png,4,0.996363493,1,3,1,3
2,2,51,folder/matchedM072.png,1,1.125579184,1,1,2,1
2,2,52,folder/matchedM008.png,2,0.745192622,1,4,1,4
2,2,53,folder/matchedM003.png,2,0.974408635,1,4,1,4
2,2,54,folder/matchedM016IN.png,3,3.2164624,0,4,2,3
2,2,55,folder/matchedM019.png,1,2.586067373,0,4,2,1
2,2,56,folder/matchedM006SL.png,6,0.983498315,1,3,1,3
2,2,57,folder/matchedM004SL.png,6,0.785491225,1,4,1,4
2,2,58,folder/matchedM004.png,1,1.516376747,1,3,2,3
2,2,59,folder/matchedM021SL.png,6,2.565306946,1,2,1,2
2,2,60,folder/matchedM017SR.png,6,1.395309993,1,1,1,1
2,2,61,folder/matchedM072SL.png,6,0.80507393,1,4,1,4
2,2,62,folder/matchedM004SL.png,5,1.042927054,1,2,2,2
2,2,63,folder/matchedM008IN.png,4,1.052470069,1,3,1,3
2,2,64,folder/matchedM008SR.png,5,1.203808948,1,2,2,2
2,2,65,folder/matchedM049IN.png,3,1.814091807,1,3,2,3
2,2,66,folder/matchedM019IN.png,3,0.81315573,1,1,2,1
2,2,67,folder/matchedM003.png,1,0.773247711,1,1,2,1
2,2,68,folder/matchedM003SR.png,6,1.723443802,1,4,1,4
2,2,69,folder/matchedM017.png,1,3.992730849,1,4,2,4
2,2,70,folder/matchedM016SL.png,6,0.645581768,1,4,1,4
2,2,71,folder/matchedM067IN.png,3,0.784589525,1,2,2,2
2,2,72,folder/matchedM008IN.png,3,1.997832615,1,4,2,4
2,2,73,folder/matchedM003IN.png,4,2.1317246,1,2,1,2
2,2,74,folder/matchedM002.png,2,1.144983098,1,3,1,3
2,2,75,folder/matchedM020SR.png,5,4.203126466,1,4,2,4
2,2,76,folder/matchedM024IN.png,3,0.926103316,1,2,2,2
2,2,77,folder/matchedM020.png,2,1.070064416,1,4,1,4
2,2,78,folder/matchedM006IN.png,3,0.828719179,1,2,2,2
2,2,79,folder/matchedM021IN.png,4,2.034452973,1,1,1,1
2,2,80,folder/matchedM005IN.png,4,1.051752991,1,3,1,3
2,2,81,folder/matchedM006.png,2,0.815335767,1,4,1,4
2,2,82,folder/matchedM006.png,1,2.254371523,1,3,2,3
2,2,83,folder/matchedM049SL.png,5,2.335584674,1,3,2,3
2,2,84,folder/matchedM024.png,2,1.705678485,1,3,1,3
2,2,85,folder/matchedM072.png,2,0.94441038,1,4,1,4
2,2,86,folder/matchedM016.png,2,1.534179033,1,2,1,2
2,2,87,folder/matchedM017.png,2,1.633929059,1,2,1,2
2,2,88,folder/matchedM004.png,2,1.164850057,1,3,1,3
2,2,89,folder/matchedM067SR.png,6,1.043803969,1,3,1,3
2,2,90,folder/matchedM019SL.png,5,5.600455269,1,4,2,4
2,2,91,folder/matchedM024.png,1,1.614193829,1,2,2,2
2,2,92,folder/matchedM008.png,1,2.29184569,1,3,2,3
2,2,93,folder/matchedM005.png,2,1.87201332,1,2,1,2
2,2,94,folder/matchedM016.png,1,1.261570545,1,1,2,1
2,2,95,folder/matchedM001.png,1,3.50169629,1,4,2,4
2,2,96,folder/matchedM004IN.png,3,1.682489129,1,2,2,2
3,2,1,folder/matchedM020IN.png,4,2.241401837,1,4,1,4
3,2,2,folder/matchedM067SR.png,6,1.025122325,1,2,1,2
3,2,3,folder/matchedM005SR.png,6,1.174575025,1,4,1,4
3,2,4,folder/matchedM020SR.png,5,1.577406671,1,2,2,2
3,2,5,folder/matchedM049SL.png,6,1.705137884,1,1,1,1
3,2,6,folder/matchedM001SR.png,6,4.677138015,1,4,1,4
3,2,7,folder/matchedM017SR.png,5,2.034932691,1,2,2,2
3,2,8,folder/matchedM067IN.png,4,2.144794288,1,1,1,1
3,2,9,folder/matchedM008IN.png,3,1.216822065,1,1,2,1
3,2,10,folder/matchedM004SL.png,6,0.876087189,1,2,1,2
3,2,11,folder/matchedM001IN.png,4,1.643303233,1,2,1,2
3,2,12,folder/matchedM019SL.png,5,1.78434437,1,4,2,4
3,2,13,folder/matchedM006SL.png,6,1.343801915,1,2,1,2
3,2,14,folder/matchedM024.png,1,1.313679315,1,4,2,4
3,2,15,folder/matchedM008SR.png,5,1.054480611,1,3,2,3
3,2,16,folder/matchedM008SR.png,6,1.63459434,1,3,1,3
3,2,17,folder/matchedM072IN.png,3,1.346844014,1,1,2,1
3,2,18,folder/matchedM008.png,1,2.114906044,1,4,2,4
3,2,19,folder/matchedM020.png,2,1.294112598,1,2,1,2
3,2,20,folder/matchedM016IN.png,3,1.504959336,1,1,2,1
3,2,21,folder/matchedM021SL.png,6,1.814297091,1,1,1,1
3,2,22,folder/matchedM004.png,1,1.015580111,1,2,2,2
3,2,23,folder/matchedM001IN.png,3,1.365214277,1,4,2,4
3,2,24,folder/matchedM002IN.png,4,1.356440512,1,1,1,1
3,2,25,folder/matchedM005IN.png,3,1.243853762,1,3,2,3
3,2,26,folder/matchedM003.png,1,1.783819625,1,4,2,4
3,2,27,folder/matchedM006.png,2,2.631204632,1,4,1,4
3,2,28,folder/matchedM003SR.png,5,2.475342275,1,2,2,2
3,2,29,folder/matchedM016.png,2,1.244158249,1,4,1,4
3,2,30,folder/matchedM072SL.png,5,1.145138552,1,2,2,2
3,2,31,folder/matchedM049IN.png,4,3.604519369,1,1,1,1
3,2,32,folder/matchedM049SL.png,5,2.943046685,1,4,2,4
3,2,33,folder/matchedM004IN.png,3,1.635150377,1,1,2,1
3,2,34,folder/matchedM019.png,1,2.94289687,1,3,2,3
3,2,35,folder/matchedM002SL.png,6,1.825723644,1,2,1,2
3,2,36,folder/matchedM021IN.png,3,4.27274784,1,3,2,3
3,2,37,folder/matchedM016SL.png,6,2.782651059,1,2,1,2
3,2,38,folder/matchedM067IN.png,3,1.544075842,1,3,2,3
3,2,39,folder/matchedM008.png,2,1.404062762,1,1,1,1
3,2,40,folder/matchedM049.png,2,1.786911532,1,4,1,4
3,2,41,folder/matchedM001.png,1,1.484940912,1,1,2,1
3,2,42,folder/matchedM017IN.png,3,1.914366833,1,4,2,4
3,2,43,folder/matchedM008IN.png,4,2.233606946,1,4,1,4
3,2,44,folder/matchedM016SL.png,5,1.485582854,1,4,2,4
3,2,45,folder/matchedM067.png,1,1.343850234,1,4,2,4
3,2,46,folder/matchedM021.png,2,1.783964906,1,4,1,4
3,2,47,folder/matchedM049IN.png,3,2.243626084,1,3,2,3
3,2,48,folder/matchedM016IN.png,4,2.525534818,1,4,1,4
3,2,49,folder/matchedM021IN.png,4,5.384819756,1,2,1,2
3,2,50,folder/matchedM004SL.png,5,1.50272963,1,4,2,4
3,2,51,folder/matchedM072.png,2,1.129736985,1,2,1,2
3,2,52,folder/matchedM003.png,2,2.851728117,1,3,1,3
3,2,53,folder/matchedM005.png,1,1.053892551,1,4,2,4
3,2,54,folder/matchedM019IN.png,4,6.211002983,1,3,1,3
3,2,55,folder/matchedM024SR.png,6,7.822755498,1,2,1,2
3,2,56,folder/matchedM002SL.png,5,2.064492247,1,1,2,1
3,2,57,folder/matchedM072.png,1,1.683272413,1,4,2,4
3,2,58,folder/matchedM067.png,2,1.503672673,1,4,1,4
3,2,59,folder/matchedM004IN.png,4,1.863180196,1,3,1,3
3,2,60,folder/matchedM002.png,1,1.68474003,1,2,2,2
3,2,61,folder/matchedM072IN.png,4,2.860799759,1,3,1,3
3,2,62,folder/matchedM005SR.png,5,1.373536007,1,2,2,2
3,2,63,folder/matchedM003IN.png,3,1.874176373,1,3,2,3
3,2,64,folder/matchedM001SR.png,5,7.952242853,1,1,2,1
3,2,65,folder/matchedM005IN.png,4,1.551621539,1,4,1,4
3,2,66,folder/matchedM072SL.png,6,2.542413403,1,3,1,3
3,2,67,folder/matchedM002.png,2,1.461905242,1,1,1,1
3,2,68,folder/matchedM006SL.png,5,2.141325561,1,4,2,4
3,2,69,folder/matchedM020SR.png,6,3.70411128,1,3,1,3
3,2,70,folder/matchedM017.png,2,1.502486249,1,4,1,4
3,2,71,folder/matchedM067SR.png,5,1.004100671,1,2,2,2
3,2,72,folder/matchedM024IN.png,4,4.470547254,1,2,1,2
3,2,73,folder/matchedM003IN.png,4,2.150254366,1,2,1,2
3,2,74,folder/matchedM024SR.png,5,1.004139918,1,2,2,2
3,2,75,folder/matchedM001.png,2,2.271342649,1,3,1,3
3,2,76,folder/matchedM017.png,1,1.854000491,1,4,2,4
3,2,77,folder/matchedM020.png,1,1.154641834,1,2,2,2
3,2,78,folder/matchedM021SL.png,5,2.302630594,1,1,2,1
3,2,79,folder/matchedM020IN.png,3,1.503784826,1,2,2,2
3,2,80,folder/matchedM006IN.png,3,1.154468515,1,3,2,3
3,2,81,folder/matchedM049.png,1,1.411429344,1,4,2,4
3,2,82,folder/matchedM024.png,2,1.715120418,1,2,1,2
3,2,83,folder/matchedM019SL.png,6,4.143616298,1,4,1,4
3,2,84,folder/matchedM017IN.png,4,1.501272415,1,1,1,1
3,2,85,folder/matchedM005.png,2,1.489506714,1,3,1,3
3,2,86,folder/matchedM006IN.png,4,1.89343863,1,4,1,4
3,2,87,folder/matchedM003SR.png,6,7.921465239,1,4,1,4
3,2,88,folder/matchedM016.png,1,1.148748695,1,1,2,1
3,2,89,folder/matchedM002IN.png,3,2.010558919,1,3,2,3
3,2,90,folder/matchedM019.png,2,1.415157453,1,2,1,2
3,2,91,folder/matchedM021.png,1,2.428789007,1,1,2,1
3,2,92,folder/matchedM019IN.png,3,1.313019485,1,2,2,2
3,2,93,folder/matchedM006.png,1,1.163425312,1,1,2,1
3,2,94,folder/matchedM004.png,2,1.092903659,1,2,1,2
3,2,95,folder/matchedM017SR.png,6,1.644635768,1,2,1,2
3,2,96,folder/matchedM024IN.png,3,1.895362413,1,1,2,1
4,2,1,folder/matchedM006IN.png,4,2.513548339,1,4,1,4
4,2,2,folder/matchedM024IN.png,4,1.1042643,1,2,1,2
4,2,3,folder/matchedM016SL.png,6,2.004958372,1,4,1,4
4,2,4,folder/matchedM019SL.png,5,8.845835785,1,4,2,4
4,2,5,folder/matchedM021IN.png,3,2.73182578,1,4,2,4
4,2,6,folder/matchedM004IN.png,4,2.872385728,1,3,1,3
4,2,7,folder/matchedM024.png,2,1.255886714,1,2,1,2
4,2,8,folder/matchedM021.png,2,1.765877141,0,4,1,1
4,2,9,folder/matchedM005.png,1,2.544765916,1,2,2,2
4,2,10,folder/matchedM006.png,1,2.903946649,1,4,2,4
4,2,11,folder/matchedM019IN.png,4,5.324349659,1,2,1,2
4,2,12,folder/matchedM004SL.png,5,1.986278792,1,2,2,2
4,2,13,folder/matchedM017.png,1,2.12373039,1,3,2,3
4,2,14,folder/matchedM004IN.png,3,4.614674839,1,3,2,3
4,2,15,folder/matchedM017SR.png,5,2.88126212,1,2,2,2
4,2,16,folder/matchedM006.png,2,0.73285914,1,2,1,2
4,2,17,folder/matchedM072.png,1,2.624083995,1,1,2,1
4,2,18,folder/matchedM020SR.png,6,3.545865357,1,3,1,3
4,2,19,folder/matchedM003SR.png,6,4.466943386,1,1,1,1
4,2,20,folder/matchedM016.png,2,1.790396533,1,4,1,4
4,2,21,folder/matchedM001IN.png,3,3.873152284,1,4,2,4
4,2,22,folder/matchedM001SR.png,5,5.234404619,1,4,2,4
4,2,23,folder/matchedM020IN.png,4,1.263962126,1,3,1,3
4,2,24,folder/matchedM004.png,1,1.441594775,1,2,2,2
4,2,25,folder/matchedM016SL.png,5,2.364272438,1,2,2,2
4,2,26,folder/matchedM017.png,2,1.634638584,1,1,1,1
4,2,27,folder/matchedM020.png,1,1.89365026,1,3,2,3
4,2,28,folder/matchedM003.png,2,3.612501605,1,3,1,3
4,2,29,folder/matchedM024IN.png,3,5.62461825,1,4,2,4
4,2,30,folder/matchedM005IN.png,3,2.20487426,1,4,2,4
4,2,31,folder/matchedM008SR.png,6,2.021489964,1,2,1,2
4,2,32,folder/matchedM005SR.png,5,6.082332562,1,1,2,1
4,2,33,folder/matchedM004.png,2,1.662044959,1,4,1,4
4,2,34,folder/matchedM019.png,2,1.882793924,1,2,1,2
4,2,35,folder/matchedM005.png,2,1.334766149,1,1,1,1
4,2,36,folder/matchedM021SL.png,6,9.342401662,1,3,1,3
4,2,37,folder/matchedM005IN.png,4,2.241547738,1,4,1,4
4,2,38,folder/matchedM020SR.png,5,2.744384641,1,1,2,1
4,2,39,folder/matchedM004SL.png,6,3.59532574,1,3,1,3
4,2,40,folder/matchedM020IN.png,3,2.672259225,1,1,2,1
4,2,41,folder/matchedM002SL.png,6,4.593944175,1,1,1,1
4,2,42,folder/matchedM017SR.png,6,1.86135116,1,4,1,4
4,2,43,folder/matchedM021.png,1,1.724006975,1,2,2,2
4,2,44,folder/matchedM002.png,1,1.383444947,1,2,2,2
4,2,45,folder/matchedM001IN.png,4,3.811589473,1,3,1,3
4,2,46,folder/matchedM067.png,1,4.631445599,1,3,2,3
4,2,47,folder/matchedM017IN.png,4,5.814896459,1,2,1,2
4,2,48,folder/matchedM021SL.png,5,7.15316427,1,4,2,4
4,2,49,folder/matchedM024.png,1,2.611757238,1,2,2,2
4,2,50,folder/matchedM049.png,1,2.525350465,1,4,2,4
4,2,51,folder/matchedM072IN.png,3,1.760557427,0,3,2,1
4,2,52,folder/matchedM016IN.png,3,2.462138783,1,4,2,4
4,2,53,folder/matchedM016IN.png,4,2.352990508,1,1,1,1
4,2,54,folder/matchedM006SL.png,5,2.479532831,1,1,2,1
4,2,55,folder/matchedM049IN.png,3,1.983458688,1,3,2,3
4,2,56,folder/matchedM024SR.png,6,3.941568809,1,4,1,4
4,2,57,folder/matchedM049SL.png,6,2.40505812,1,4,1,4
4,2,58,folder/matchedM072IN.png,4,1.772321557,1,4,1,4
4,2,59,folder/matchedM019SL.png,6,10.0009196,-1,3,1,0
4,2,60,folder/matchedM001SR.png,6,2.815202014,1,2,1,2
4,2,61,folder/matchedM008.png,1,1.98479913,1,1,2,1
4,2,62,folder/matchedM001.png,1,1.433508543,1,2,2,2
4,2,63,folder/matchedM003IN.png,4,2.962907351,1,1,1,1
4,2,64,folder/matchedM067SR.png,6,5.662085222,1,2,1,2
4,2,65,folder/matchedM003IN.png,3,5.921652724,1,2,2,2
4,2,66,folder/matchedM008.png,2,3.609629464,1,3,1,3
4,2,67,folder/matchedM020.png,2,1.052366317,1,2,1,2
4,2,68,folder/matchedM021IN.png,4,4.580386284,1,4,1,4
4,2,69,folder/matchedM017IN.png,3,1.801923052,1,1,2,1
4,2,70,folder/matchedM001.png,2,1.860771653,1,1,1,1
4,2,71,folder/matchedM072SL.png,6,2.174047184,1,3,1,3
4,2,72,folder/matchedM067.png,2,1.112108033,1,2,1,2
4,2,73,folder/matchedM008SR.png,5,2.621532886,1,3,2,3
4,2,74,folder/matchedM067IN.png,4,1.743726337,1,1,1,1
4,2,75,folder/matchedM002SL.png,5,3.103221741,1,1,2,1
4,2,76,folder/matchedM002IN.png,4,3.233407861,1,4,1,4
4,2,77,folder/matchedM049SL.png,5,5.442791713,1,3,2,3
4,2,78,folder/matchedM024SR.png,5,2.971816483,1,2,2,2
4,2,79,folder/matchedM072SL.png,5,1.171513175,0,1,2,2
4,2,80,folder/matchedM049IN.png,4,2.892681316,1,2,1,2
4,2,81,folder/matchedM006IN.png,3,7.752436197,1,4,2,4
4,2,82,folder/matchedM019.png,1,1.402514321,1,2,2,2
4,2,83,folder/matchedM008IN.png,3,5.032504024,1,4,2,4
4,2,84,folder/matchedM072.png,2,1.290712446,1,1,1,1
4,2,85,folder/matchedM019IN.png,3,2.56102439,1,4,2,4
4,2,86,folder/matchedM008IN.png,4,2.845012026,1,4,1,4
4,2,87,folder/matchedM016.png,1,2.353022113,1,3,2,3
4,2,88,folder/matchedM067SR.png,5,5.413129964,1,3,2,3
4,2,89,folder/matchedM003.png,1,1.551110325,1,2,2,2
4,2,90,folder/matchedM067IN.png,3,2.733536441,1,1,2,1
4,2,91,folder/matchedM006SL.png,6,2.203721197,1,3,1,3
4,2,92,folder/matchedM002IN.png,3,2.733707011,1,2,2,2
4,2,93,folder/matchedM049.png,2,2.332995061,1,4,1,4
4,2,94,folder/matchedM005SR.png,6,1.383708543,1,2,1,2
4,2,95,folder/matchedM002.png,2,1.76467824,1,4,1,4
4,2,96,folder/matchedM003SR.png,5,2.512548497,1,1,2,1
5,2,1,folder/matchedM003.png,1,1.631314048,1,2,2,2
5,2,2,folder/matchedM002IN.png,4,1.173995856,1,3,1,3
5,2,3,folder/matchedM021IN.png,4,1.787924889,1,2,1,2
5,2,4,folder/matchedM006SL.png,5,1.148542524,1,4,2,4
5,2,5,folder/matchedM049.png,1,1.549592806,1,1,2,1
5,2,6,folder/matchedM004IN.png,3,0.889052299,1,3,2,3
5,2,7,folder/matchedM004SL.png,5,1.708977052,1,3,2,3
5,2,8,folder/matchedM019IN.png,3,1.348616925,1,4,2,4
5,2,9,folder/matchedM019.png,1,0.747772055,1,3,2,3
5,2,10,folder/matchedM001.png,2,1.348288371,1,3,1,3
5,2,11,folder/matchedM003SR.png,5,1.197028173,1,1,2,1
5,2,12,folder/matchedM005IN.png,4,0.987048361,1,1,1,1
5,2,13,folder/matchedM003IN.png,4,1.547546644,1,3,1,3
5,2,14,folder/matchedM004SL.png,6,1.196652424,1,2,1,2
5,2,15,folder/matchedM008.png,1,0.846245534,1,2,2,2
5,2,16,folder/matchedM002.png,2,1.475031814,1,4,1,4
5,2,17,folder/matchedM072SL.png,6,1.195514465,1,2,1,2
5,2,18,folder/matchedM049IN.png,4,1.454879593,1,3,1,3
5,2,19,folder/matchedM024IN.png,4,1.215268482,1,1,1,1
5,2,20,folder/matchedM072IN.png,3,0.897048794,1,3,2,3
5,2,21,folder/matchedM019SL.png,5,0.803278729,1,3,2,3
5,2,22,folder/matchedM016SL.png,5,1.256171847,1,2,2,2
5,2,23,folder/matchedM072SL.png,5,0.988012933,1,4,2,4
5,2,24,folder/matchedM024IN.png,3,1.161318056,1,4,2,4
5,2,25,folder/matchedM016IN.png,4,1.216403282,1,1,1,1
5,2,26,folder/matchedM017.png,2,0.956260645,1,3,1,3
5,2,27,folder/matchedM021SL.png,5,1.773945947,1,4,2,4
5,2,28,folder/matchedM008.png,2,1.251000715,1,4,1,4
5,2,29,folder/matchedM016SL.png,6,1.436597382,1,1,1,1
5,2,30,folder/matchedM072.png,2,0.966585364,1,1,1,1
5,2,31,folder/matchedM006SL.png,6,1.325884525,1,1,1,1
5,2,32,folder/matchedM001SR.png,6,1.467750862,1,4,1,4
5,2,33,folder/matchedM008IN.png,4,3.514336414,1,3,1,3
5,2,34,folder/matchedM001IN.png,3,1.115254123,1,3,2,3
5,2,35,folder/matchedM005SR.png,6,1.096176267,1,3,1,3
5,2,36,folder/matchedM003SR.png,6,2.216967877,1,2,1,2
5,2,37,folder/matchedM067IN.png,4,1.275926318,1,4,1,4
5,2,38,folder/matchedM067SR.png,6,1.178832123,1,3,1,3
5,2,39,folder/matchedM067.png,1,1.31509744,1,2,2,2
5,2,40,folder/matchedM020SR.png,6,1.105636898,1,4,1,4
5,2,41,folder/matchedM004IN.png,4,1.174064149,1,4,1,4
5,2,42,folder/matchedM017IN.png,4,1.454863935,1,3,1,3
5,2,43,folder/matchedM006.png,2,1.742565135,1,2,1,2
5,2,44,folder/matchedM021.png,2,1.78543835,1,3,1,3
5,2,45,folder/matchedM019.png,2,1.793739306,1,3,1,3
5,2,46,folder/matchedM005.png,1,2.406557,1,4,2,4
5,2,47,folder/matchedM002SL.png,5,1.746418896,1,2,2,2
5,2,48,folder/matchedM024SR.png,5,1.23573644,1,3,2,3
5,2,49,folder/matchedM004.png,2,2.005213104,1,2,1,2
5,2,50,folder/matchedM024SR.png,6,1.896565288,1,4,1,4
5,2,51,folder/matchedM003.png,2,1.215483033,1,1,1,1
5,2,52,folder/matchedM001SR.png,5,1.085210962,1,2,2,2
5,2,53,folder/matchedM002.png,1,2.534275142,1,4,2,4
5,2,54,folder/matchedM019IN.png,4,2.17571771,1,2,1,2
5,2,55,folder/matchedM005IN.png,3,1.605695231,1,1,2,1
5,2,56,folder/matchedM019SL.png,6,2.565032527,1,3,1,3
5,2,57,folder/matchedM004.png,1,1.104242145,1,4,2,4
5,2,58,folder/matchedM008SR.png,5,1.105123225,0,1,2,2
5,2,59,folder/matchedM016.png,2,1.54538211,1,4,1,4
5,2,60,folder/matchedM017SR.png,5,0.925326397,1,2,2,2
5,2,61,folder/matchedM006IN.png,4,1.653911518,1,4,1,4
5,2,62,folder/matchedM001.png,1,0.884739642,1,3,2,3
5,2,63,folder/matchedM021IN.png,3,0.813497073,1,2,2,2
5,2,64,folder/matchedM020IN.png,4,1.105151545,1,1,1,1
5,2,65,folder/matchedM020IN.png,3,0.914773179,1,3,2,3
5,2,66,folder/matchedM006IN.png,3,2.724765289,1,1,2,1
5,2,67,folder/matchedM021.png,1,1.524312179,1,3,2,3
5,2,68,folder/matchedM020.png,2,1.013991656,1,1,1,1
5,2,69,folder/matchedM024.png,1,2.506347192,1,1,2,1
5,2,70,folder/matchedM067SR.png,5,2.567550979,1,1,2,1
5,2,71,folder/matchedM008IN.png,3,0.807673773,1,2,2,2
5,2,72,folder/matchedM005.png,2,2.176008106,1,3,1,3
5,2,73,folder/matchedM024.png,2,1.185761975,1,4,1,4
5,2,74,folder/matchedM049SL.png,5,1.516897882,1,1,2,1
5,2,75,folder/matchedM003IN.png,3,0.966886309,1,2,2,2
5,2,76,folder/matchedM017.png,1,0.897423254,1,3,2,3
5,2,77,folder/matchedM006.png,1,2.429919446,1,1,2,1
5,2,78,folder/matchedM049IN.png,3,1.547671166,1,3,2,3
5,2,79,folder/matchedM049SL.png,6,2.196480715,1,2,1,2
5,2,80,folder/matchedM016IN.png,3,0.805893797,1,3,2,3
5,2,81,folder/matchedM021SL.png,6,1.574479996,0,2,1,1
5,2,82,folder/matchedM016.png,1,1.295022046,1,2,2,2
5,2,83,folder/matchedM020.png,1,1.626193818,1,1,2,1
5,2,84,folder/matchedM067IN.png,3,1.416137566,1,4,2,4
5,2,85,folder/matchedM005SR.png,5,1.377585305,1,4,2,4
5,2,86,folder/matchedM017IN.png,3,1.075873059,1,2,2,2
5,2,87,folder/matchedM072.png,1,2.442276658,1,4,2,4
5,2,88,folder/matchedM017SR.png,6,2.804312626,1,2,1,2
5,2,89,folder/matchedM002IN.png,3,2.003656773,1,4,2,4
5,2,90,folder/matchedM002SL.png,6,1.795950779,1,3,1,3
5,2,91,folder/matchedM001IN.png,4,4.451842362,1,4,1,4
5,2,92,folder/matchedM008SR.png,6,0.992303387,1,3,1,3
5,2,93,folder/matchedM067.png,2,1.582607416,1,3,1,3
5,2,94,folder/matchedM072IN.png,4,2.23830975,1,1,1,1
5,2,95,folder/matchedM049.png,2,1.356932637,1,1,1,1
5,2,96,folder/matchedM020SR.png,5,0.675132568,1,3,2,3
6,2,1,folder/matchedM006.png,1,1.344182439,1,3,2,3
6,2,2,folder/matchedM049SL.png,6,1.919920741,1,3,1,3
6,2,3,folder/matchedM005IN.png,3,0.666487765,1,3,2,3
6,2,4,folder/matchedM005SR.png,6,1.785277107,1,2,1,2
6,2,5,folder/matchedM006.png,2,1.02724984,1,4,1,4
6,2,6,folder/matchedM008SR.png,5,1.254907112,1,1,2,1
6,2,7,folder/matchedM072SL.png,6,1.254706711,1,1,1,1
6,2,8,folder/matchedM006IN.png,4,1.214834782,1,4,1,4
6,2,9,folder/matchedM024.png,1,1.306095764,1,2,2,2
6,2,10,folder/matchedM049IN.png,3,0.647901195,1,3,2,3
6,2,11,folder/matchedM002SL.png,6,1.682431452,1,2,1,2
6,2,12,folder/matchedM008.png,1,1.702556136,0,1,2,2
6,2,13,folder/matchedM006SL.png,5,2.032444548,0,1,2,2
6,2,14,folder/matchedM016IN.png,4,1.162348489,0,3,1,2
6,2,15,folder/matchedM072IN.png,3,0.641230269,1,2,2,2
6,2,16,folder/matchedM049SL.png,5,0.670905993,1,3,2,3
6,2,17,folder/matchedM001IN.png,3,2.492816525,1,1,2,1
6,2,18,folder/matchedM021.png,1,2.264642795,0,4,2,3
6,2,19,folder/matchedM005.png,2,0.614307928,1,1,1,1
6,2,20,folder/matchedM020.png,1,1.343024274,0,1,2,2
6,2,21,folder/matchedM024SR.png,6,2.592068428,1,2,1,2
6,2,22,folder/matchedM001IN.png,4,1.103429929,1,2,1,2
6,2,23,folder/matchedM024IN.png,4,1.04526897,1,1,1,1
6,2,24,folder/matchedM067SR.png,5,4.543441345,0,4,2,3
6,2,25,folder/matchedM021IN.png,3,1.603934082,1,1,2,1
6,2,26,folder/matchedM019IN.png,4,1.180952998,1,4,1,4
6,2,27,folder/matchedM016SL.png,5,2.14353667,0,1,2,2
6,2,28,folder/matchedM019SL.png,6,1.541308501,0,2,1,1
6,2,29,folder/matchedM020IN.png,3,1.072327859,1,3,2,3
6,2,30,folder/matchedM001.png,1,0.839387929,1,3,2,3
6,2,31,folder/matchedM019.png,1,2.293216489,1,4,2,4
6,2,32,folder/matchedM004IN.png,3,0.914899712,1,2,2,2
6,2,33,folder/matchedM016.png,2,1.792570882,1,2,1,2
6,2,34,folder/matchedM024IN.png,3,2.801610145,0,4,2,2
6,2,35,folder/matchedM049IN.png,4,2.672455066,1,3,1,3
6,2,36,folder/matchedM005IN.png,4,0.682676608,1,4,1,4
6,2,37,folder/matchedM021SL.png,6,0.659253858,1,1,1,1
6,2,38,folder/matchedM020SR.png,6,0.676004561,1,1,1,1
6,2,39,folder/matchedM067IN.png,3,2.03039795,0,4,2,3
6,2,40,folder/matchedM024.png,2,0.662794705,1,4,1,4
6,2,41,folder/matchedM067IN.png,4,1.552925767,1,3,1,3
6,2,42,folder/matchedM020SR.png,5,0.653705203,1,2,2,2
6,2,43,folder/matchedM017.png,2,1.782023318,1,3,1,3
6,2,44,folder/matchedM021IN.png,4,0.621971076,1,1,1,1
6,2,45,folder/matchedM003.png,2,0.684007358,1,4,1,4
6,2,46,folder/matchedM002.png,1,2.193038525,0,1,2,2
6,2,47,folder/matchedM016.png,1,0.744987993,1,3,2,3
6,2,48,folder/matchedM021SL.png,5,4.314020495,1,1,2,1
6,2,49,folder/matchedM017.png,1,0.701227287,1,1,2,1
6,2,50,folder/matchedM017IN.png,4,1.331859771,1,2,1,2
6,2,51,folder/matchedM008SR.png,6,0.860343463,1,3,1,3
6,2,52,folder/matchedM020.png,2,0.92280643,1,1,1,1
6,2,53,folder/matchedM049.png,2,0.913703732,1,4,1,4
6,2,54,folder/matchedM024SR.png,5,1.172541885,1,1,2,1
6,2,55,folder/matchedM005SR.png,5,0.99045949,1,4,2,4
6,2,56,folder/matchedM004.png,2,1.951442628,1,3,1,3
6,2,57,folder/matchedM004.png,1,1.331743283,1,3,2,3
6,2,58,folder/matchedM019SL.png,5,0.921601224,1,3,2,3
6,2,59,folder/matchedM003SR.png,6,1.255451127,1,1,1,1
6,2,60,folder/matchedM067.png,1,1.212719857,1,4,2,4
6,2,61,folder/matchedM002SL.png,5,0.753043735,1,2,2,2
6,2,62,folder/matchedM072.png,2,1.282474538,1,2,1,2
6,2,63,folder/matchedM067SR.png,6,2.090991102,1,3,1,3
6,2,64,folder/matchedM001SR.png,5,1.303832449,0,4,2,3
6,2,65,folder/matchedM003IN.png,3,1.163045739,0,1,2,2
6,2,66,folder/matchedM002.png,2,1.441187654,1,2,1,2
6,2,67,folder/matchedM017SR.png,5,4.751403788,1,4,2,4
6,2,68,folder/matchedM008IN.png,4,1.314574963,1,2,1,2
6,2,69,folder/matchedM072SL.png,5,1.119159162,1,4,2,4
6,2,70,folder/matchedM017SR.png,6,1.25215568,1,1,1,1
6,2,71,folder/matchedM005.png,1,1.102155104,1,4,2,4
6,2,72,folder/matchedM006SL.png,6,1.31202603,1,2,1,2
6,2,73,folder/matchedM049.png,1,2.169203595,1,1,2,1
6,2,74,folder/matchedM003IN.png,4,1.473626132,1,1,1,1
6,2,75,folder/matchedM016IN.png,3,0.99275603,1,2,2,2
6,2,76,folder/matchedM004IN.png,4,1.891113026,1,3,1,3
6,2,77,folder/matchedM003SR.png,5,1.18166508,1,2,2,2
6,2,78,folder/matchedM002IN.png,3,0.991052166,1,2,2,2
6,2,79,folder/matchedM019.png,2,1.863924856,1,3,1,3
6,2,80,folder/matchedM019IN.png,3,1.153259328,1,3,2,3
6,2,81,folder/matchedM001SR.png,6,1.362807839,1,3,1,3
6,2,82,folder/matchedM017IN.png,3,1.320577352,1,4,2,4
6,2,83,folder/matchedM008IN.png,3,0.833764229,1,3,2,3
6,2,84,folder/matchedM002IN.png,4,1.363023413,1,2,1,2
6,2,85,folder/matchedM008.png,2,0.771164775,1,1,1,1
6,2,86,folder/matchedM004SL.png,6,0.941022942,1,1,1,1
6,2,87,folder/matchedM004SL.png,5,1.182289109,1,4,2,4
6,2,88,folder/matchedM006IN.png,3,1.0944009,1,1,2,1
6,2,89,folder/matchedM001.png,2,1.35448582,1,2,1,2
6,2,90,folder/matchedM072.png,1,1.170698718,1,2,2,2
6,2,91,folder/matchedM067.png,2,1.05478474,1,3,1,3
6,2,92,folder/matchedM003.png,1,1.222365101,1,3,2,3
6,2,93,folder/matchedM020IN.png,4,1.373096378,1,2,1,2
6,2,94,folder/matchedM016SL.png,6,1.702969061,1,2,1,2
6,2,95,folder/matchedM021.png,2,0.923369598,1,2,1,2
6,2,96,folder/matchedM072IN.png,4,1.012787086,1,4,1,4
7,2,1,folder/matchedM020SR.png,6,1.401963062,1,4,1,4
7,2,2,folder/matchedM024.png,2,1.205666179,1,3,1,3
7,2,3,folder/matchedM016SL.png,6,1.101883621,1,3,1,3
7,2,4,folder/matchedM002IN.png,3,1.145455211,1,4,2,4
7,2,5,folder/matchedM017.png,1,1.626589379,1,4,2,4
7,2,6,folder/matchedM008IN.png,3,1.253061553,1,1,2,1
7,2,7,folder/matchedM002.png,2,1.017704228,1,4,1,4
7,2,8,folder/matchedM017IN.png,4,1.234429104,1,3,1,3
7,2,9,folder/matchedM020.png,1,1.282659702,1,3,2,3
7,2,10,folder/matchedM003.png,1,1.563184119,1,2,2,2
7,2,11,folder/matchedM017.png,2,1.204409304,1,1,1,1
7,2,12,folder/matchedM005.png,2,1.275712906,1,3,1,3
7,2,13,folder/matchedM005SR.png,5,1.662929487,1,1,2,1
7,2,14,folder/matchedM006SL.png,5,1.866856854,1,1,2,1
7,2,15,folder/matchedM001SR.png,6,1.366102545,1,3,1,3
7,2,16,folder/matchedM008SR.png,6,1.203434965,1,1,1,1
7,2,17,folder/matchedM021IN.png,3,2.671750737,1,4,2,4
7,2,18,folder/matchedM002SL.png,5,2.133948607,1,3,2,3
7,2,19,folder/matchedM006.png,1,1.053450881,1,3,2,3
7,2,20,folder/matchedM019IN.png,4,1.233571712,1,1,1,1
7,2,21,folder/matchedM067SR.png,6,1.434917398,1,1,1,1
7,2,22,folder/matchedM017IN.png,3,1.133493173,1,4,2,4
7,2,23,folder/matchedM008SR.png,5,1.442399592,1,4,2,4
7,2,24,folder/matchedM005IN.png,4,1.283707725,1,2,1,2
7,2,25,folder/matchedM072.png,1,0.813600185,1,1,2,1
7,2,26,folder/matchedM016.png,2,1.043819943,1,1,1,1
7,2,27,folder/matchedM005SR.png,6,1.212100538,1,4,1,4
7,2,28,folder/matchedM002.png,1,1.122556112,0,3,2,4
7,2,29,folder/matchedM019SL.png,6,3.153085538,1,2,1,2
7,2,30,folder/matchedM021IN.png,4,5.234923672,1,4,1,4
7,2,31,folder/matchedM067IN.png,3,4.112045036,1,3,2,3
7,2,32,folder/matchedM005.png,1,1.172380116,1,1,2,1
7,2,33,folder/matchedM021.png,2,2.592361959,1,4,1,4
7,2,34,folder/matchedM005IN.png,3,2.462208658,1,1,2,1
7,2,35,folder/matchedM006IN.png,4,1.363817971,1,3,1,3
7,2,36,folder/matchedM072IN.png,4,1.314904445,1,3,1,3
7,2,37,folder/matchedM020IN.png,4,1.342159949,1,2,1,2
7,2,38,folder/matchedM019IN.png,3,1.921536101,0,3,2,4
7,2,39,folder/matchedM004SL.png,5,1.711161743,1,2,2,2
7,2,40,folder/matchedM004.png,1,1.130482108,1,1,2,1
7,2,41,folder/matchedM017SR.png,6,1.652231398,1,4,1,4
7,2,42,folder/matchedM004SL.png,6,1.871367284,1,4,1,4
7,2,43,folder/matchedM021.png,1,1.36112505,1,2,2,2
7,2,44,folder/matchedM006IN.png,3,1.833498743,1,3,2,3
7,2,45,folder/matchedM004IN.png,3,1.711287054,1,1,2,1
7,2,46,folder/matchedM003.png,2,1.439159683,1,2,1,2
7,2,47,folder/matchedM049SL.png,5,5.033751199,1,1,2,1
7,2,48,folder/matchedM003SR.png,6,3.788607641,1,2,1,2
7,2,49,folder/matchedM004.png,2,1.930472451,1,4,1,4
7,2,50,folder/matchedM003IN.png,3,7.119385403,1,2,2,2
7,2,51,folder/matchedM017SR.png,5,5.724111898,1,2,2,2
7,2,52,folder/matchedM019.png,1,1.189083711,1,2,2,2
7,2,53,folder/matchedM072SL.png,5,2.266663855,1,1,2,1
7,2,54,folder/matchedM020.png,2,0.86409429,1,2,1,2
7,2,55,folder/matchedM020IN.png,3,1.822217482,1,4,2,4
7,2,56,folder/matchedM003SR.png,5,1.88902698,1,2,2,2
7,2,57,folder/matchedM006SL.png,6,3.560789393,1,4,1,4
7,2,58,folder/matchedM002SL.png,6,1.0711023,1,3,1,3
7,2,59,folder/matchedM006.png,2,0.881910452,1,2,1,2
7,2,60,folder/matchedM008.png,2,1.150919461,1,4,1,4
7,2,61,folder/matchedM024IN.png,3,1.501610909,1,2,2,2
7,2,62,folder/matchedM067.png,1,3.329705916,1,3,2,3
7,2,63,folder/matchedM049.png,2,2.093267364,1,4,1,4
7,2,64,folder/matchedM016SL.png,5,3.310967731,1,4,2,4
7,2,65,folder/matchedM019.png,2,1.681594293,1,1,1,1
7,2,66,folder/matchedM016.png,1,1.492762051,1,1,2,1
7,2,67,folder/matchedM008.png,1,1.932630995,1,2,2,2
7,2,68,folder/matchedM024.png,1,1.040376772,1,1,2,1
7,2,69,folder/matchedM001.png,2,1.290749111,1,2,1,2
7,2,70,folder/matchedM024SR.png,5,2.020699737,1,1,2,1
7,2,71,folder/matchedM067IN.png,4,1.411954276,1,3,1,3
7,2,72,folder/matchedM002IN.png,4,1.231483057,1,2,1,2
7,2,73,folder/matchedM072IN.png,3,1.263394844,1,1,2,1
7,2,74,folder/matchedM001IN.png,3,1.472698774,1,4,2,4
7,2,75,folder/matchedM020SR.png,5,2.914166929,1,3,2,3
7,2,76,folder/matchedM016IN.png,4,2.062689541,1,4,1,4
7,2,77,folder/matchedM001.png,1,1.652709413,1,4,2,4
7,2,78,folder/matchedM016IN.png,3,1.552456936,1,4,2,4
7,2,79,folder/matchedM049.png,1,1.431649316,1,2,2,2
7,2,80,folder/matchedM004IN.png,4,1.792526003,1,1,1,1
7,2,81,folder/matchedM003IN.png,4,6.642307669,1,4,1,4
7,2,82,folder/matchedM019SL.png,5,6.561518048,1,3,2,3
7,2,83,folder/matchedM001SR.png,5,8.69420254,1,1,2,1
7,2,84,folder/matchedM072.png,2,2.201332654,1,4,1,4
7,2,85,folder/matchedM001IN.png,4,2.152029131,1,1,1,1
7,2,86,folder/matchedM049SL.png,6,2.07459684,1,4,1,4
7,2,87,folder/matchedM024SR.png,6,5.31316092,1,1,1,1
7,2,88,folder/matchedM067SR.png,5,1.511585612,1,1,2,1
7,2,89,folder/matchedM024IN.png,4,1.712619905,1,4,1,4
7,2,90,folder/matchedM021SL.png,6,4.112857759,0,4,1,1
7,2,91,folder/matchedM049IN.png,4,1.261083936,1,2,1,2
7,2,92,folder/matchedM049IN.png,3,1.521351042,1,4,2,4
7,2,93,folder/matchedM072SL.png,6,1.183844139,1,1,1,1
7,2,94,folder/matchedM021SL.png,5,9.36140954,1,2,2,2
7,2,95,folder/matchedM008IN.png,4,1.874388822,1,2,1,2
7,2,96,folder/matchedM067.png,2,1.451668462,1,3,1,3
8,2,1,folder/matchedM008IN.png,3,1.510913832,1,1,2,1
8,2,2,folder/matchedM006.png,1,1.202463975,1,1,2,1
8,2,3,folder/matchedM008SR.png,6,1.170297371,1,3,1,3
8,2,4,folder/matchedM016IN.png,3,1.08177079,1,4,2,4
8,2,5,folder/matchedM024IN.png,4,0.848137242,1,1,1,1
8,2,6,folder/matchedM003IN.png,3,1.106284235,1,4,2,4
8,2,7,folder/matchedM072.png,1,1.01805087,1,3,2,3
8,2,8,folder/matchedM004.png,1,1.158164217,1,1,2,1
8,2,9,folder/matchedM001IN.png,4,1.136985545,1,1,1,1
8,2,10,folder/matchedM005IN.png,4,1.072198748,1,4,1,4
8,2,11,folder/matchedM024SR.png,5,1.072246128,1,2,2,2
8,2,12,folder/matchedM016SL.png,5,0.835879624,1,4,2,4
8,2,13,folder/matchedM017.png,1,1.134155674,1,1,2,1
8,2,14,folder/matchedM067.png,2,1.134000425,1,4,1,4
8,2,15,folder/matchedM008SR.png,5,1.287861135,1,3,2,3
8,2,16,folder/matchedM016SL.png,6,1.404881103,1,3,1,3
8,2,17,folder/matchedM072SL.png,5,1.671889634,1,3,2,3
8,2,18,folder/matchedM020.png,1,1.074293997,1,4,2,4
8,2,19,folder/matchedM005IN.png,3,0.952067145,1,1,2,1
8,2,20,folder/matchedM049.png,2,1.177227306,1,2,1,2
8,2,21,folder/matchedM024.png,2,0.836513596,1,1,1,1
8,2,22,folder/matchedM019IN.png,3,0.968889846,1,4,2,4
8,2,23,folder/matchedM003.png,2,0.964292071,0,3,1,4
8,2,24,folder/matchedM021SL.png,5,2.760855174,1,4,2,4
8,2,25,folder/matchedM049IN.png,3,0.77680488,1,1,2,1
8,2,26,folder/matchedM017SR.png,6,0.739937109,1,2,1,2
8,2,27,folder/matchedM049SL.png,6,1.178401259,1,1,1,1
8,2,28,folder/matchedM005.png,2,0.834041261,1,2,1,2
8,2,29,folder/matchedM019.png,2,0.966072017,1,2,1,2
8,2,30,folder/matchedM006.png,2,0.76921658,1,1,1,1
8,2,31,folder/matchedM003SR.png,6,1.760290182,1,1,1,1
8,2,32,folder/matchedM020IN.png,3,0.96423312,1,1,2,1
8,2,33,folder/matchedM002IN.png,4,0.750945247,1,1,1,1
8,2,34,folder/matchedM006IN.png,4,1.017481233,1,4,1,4
8,2,35,folder/matchedM017IN.png,3,1.215026746,1,1,2,1
8,2,36,folder/matchedM002IN.png,3,0.863726019,1,4,2,4
8,2,37,folder/matchedM001SR.png,5,0.834623023,1,3,2,3
8,2,38,folder/matchedM008.png,1,0.994009725,1,3,2,3
8,2,39,folder/matchedM017.png,2,0.999594308,1,2,1,2
8,2,40,folder/matchedM017SR.png,5,1.237429172,1,3,2,3
8,2,41,folder/matchedM001.png,1,1.061611307,1,2,2,2
8,2,42,folder/matchedM004.png,2,1.10267687,1,4,1,4
8,2,43,folder/matchedM024.png,1,0.797425506,1,2,2,2
8,2,44,folder/matchedM021.png,2,0.870959718,1,2,1,2
8,2,45,folder/matchedM004IN.png,3,1.08849599,1,3,2,3
8,2,46,folder/matchedM005.png,1,0.936960876,1,3,2,3
8,2,47,folder/matchedM067IN.png,3,0.962032563,1,4,2,4
8,2,48,folder/matchedM021SL.png,6,1.050030187,1,2,1,2
8,2,49,folder/matchedM003IN.png,4,0.864005514,1,3,1,3
8,2,50,folder/matchedM020IN.png,4,1.30809888,1,4,1,4
8,2,51,folder/matchedM017IN.png,4,1.40222457,1,3,1,3
8,2,52,folder/matchedM006IN.png,3,0.788761947,1,3,2,3
8,2,53,folder/matchedM024SR.png,6,0.874105983,1,3,1,3
8,2,54,folder/matchedM001SR.png,6,1.192550737,1,2,1,2
8,2,55,folder/matchedM020.png,2,1.045945803,1,3,1,3
8,2,56,folder/matchedM021.png,1,1.124676217,1,2,2,2
8,2,57,folder/matchedM001.png,2,0.966974251,1,2,1,2
8,2,58,folder/matchedM072SL.png,6,1.019469676,1,4,1,4
8,2,59,folder/matchedM004SL.png,6,1.156613892,1,2,1,2
8,2,60,folder/matchedM019SL.png,6,1.549715786,1,3,1,3
8,2,61,folder/matchedM002SL.png,6,1.009856922,1,2,1,2
8,2,62,folder/matchedM003SR.png,5,1.187318494,0,1,2,2
8,2,63,folder/matchedM005SR.png,5,1.164886373,1,2,2,2
8,2,64,folder/matchedM016IN.png,4,0.957263803,1,1,1,1
8,2,65,folder/matchedM049IN.png,4,1.098959238,1,4,1,4
8,2,66,folder/matchedM003.png,1,0.820196706,0,1,2,2
8,2,67,folder/matchedM019SL.png,5,1.074627782,1,4,2,4
8,2,68,folder/matchedM016.png,1,1.422560539,1,4,2,4
8,2,69,folder/matchedM006SL.png,5,1.178229359,1,1,2,1
8,2,70,folder/matchedM049SL.png,5,1.244226397,1,2,2,2
8,2,71,folder/matchedM020SR.png,6,1.169377655,1,1,1,1
8,2,72,folder/matchedM002SL.png,5,1.696289928,1,1,2,1
8,2,73,folder/matchedM004SL.png,5,1.510654742,1,2,2,2
8,2,74,folder/matchedM021IN.png,3,2.055022592,1,1,2,1
8,2,75,folder/matchedM005SR.png,6,1.085962792,1,2,1,2
8,2,76,folder/matchedM004IN.png,4,0.924097347,1,4,1,4
8,2,77,folder/matchedM016.png,2,1.15936848,0,3,1,2
8,2,78,folder/matchedM008.png,2,0.795674837,1,2,1,2
8,2,79,folder/matchedM019IN.png,4,0.862949175,1,3,1,3
8,2,80,folder/matchedM002.png,1,0.961176212,1,3,2,3
8,2,81,folder/matchedM019.png,1,2.398393664,1,3,2,3
8,2,82,folder/matchedM067IN.png,4,1.119750349,1,4,1,4
8,2,83,folder/matchedM001IN.png,3,1.042314965,1,2,2,2
8,2,84,folder/matchedM020SR.png,5,1.549447792,1,3,2,3
8,2,85,folder/matchedM072.png,2,0.879611559,1,2,1,2
8,2,86,folder/matchedM008IN.png,4,1.636973238,1,3,1,3
8,2,87,folder/matchedM067SR.png,5,1.28841046,1,3,2,3
8,2,88,folder/matchedM072IN.png,4,0.875454811,1,1,1,1
8,2,89,folder/matchedM072IN.png,3,1.79353171,1,4,2,4
8,2,90,folder/matchedM006SL.png,6,1.365288178,1,1,1,1
8,2,91,folder/matchedM067.png,1,1.088676652,1,3,2,3
8,2,92,folder/matchedM067SR.png,6,1.033440787,1,3,1,3
8,2,93,folder/matchedM049.png,1,1.594722824,1,1,2,1
8,2,94,folder/matchedM024IN.png,3,1.216865617,1,4,2,4
8,2,95,folder/matchedM021IN.png,4,1.598448762,1,2,1,2
8,2,96,folder/matchedM002.png,2,1.392632337,1,3,1,3
9,2,1,folder/matchedM067IN.png,4,1.495359006,1,1,1,1
9,2,2,folder/matchedM001SR.png,6,1.73832727,1,1,1,1
9,2,3,folder/matchedM005IN.png,4,1.904526137,1,4,1,4
9,2,4,folder/matchedM003.png,1,1.25841147,1,2,2,2
9,2,5,folder/matchedM024SR.png,6,1.604889598,1,3,1,3
9,2,6,folder/matchedM005.png,1,1.019145574,1,4,2,4
9,2,7,folder/matchedM002SL.png,6,1.053969712,1,1,1,1
9,2,8,folder/matchedM067SR.png,6,1.513457301,1,1,1,1
9,2,9,folder/matchedM024.png,2,1.102961264,1,1,1,1
9,2,10,folder/matchedM017SR.png,6,1.652074531,1,4,1,4
9,2,11,folder/matchedM005.png,2,1.255658317,1,1,1,1
9,2,12,folder/matchedM002SL.png,5,0.792941243,1,4,2,4
9,2,13,folder/matchedM017IN.png,3,0.677437461,1,1,2,1
9,2,14,folder/matchedM006IN.png,3,1.153284862,1,1,2,1
9,2,15,folder/matchedM004SL.png,5,1.163497894,1,1,2,1
9,2,16,folder/matchedM001IN.png,3,5.274265525,1,3,2,3
9,2,17,folder/matchedM067.png,2,2.942708797,1,4,1,4
9,2,18,folder/matchedM019SL.png,5,2.263440213,1,2,2,2
9,2,19,folder/matchedM003.png,2,1.702796525,1,4,1,4
9,2,20,folder/matchedM003IN.png,3,4.794368977,1,3,2,3
9,2,21,folder/matchedM004.png,2,1.940938278,1,3,1,3
9,2,22,folder/matchedM016.png,1,2.712420569,1,3,2,3
9,2,23,folder/matchedM003SR.png,5,3.421448015,1,3,2,3
9,2,24,folder/matchedM024IN.png,4,2.313410352,1,3,1,3
9,2,25,folder/matchedM049.png,1,1.122559225,1,2,2,2
9,2,26,folder/matchedM020SR.png,6,3.042377598,1,3,1,3
9,2,27,folder/matchedM002IN.png,3,1.25269756,1,3,2,3
9,2,28,folder/matchedM021SL.png,5,0.887001615,1,4,2,4
9,2,29,folder/matchedM017IN.png,4,1.862352243,1,4,1,4
9,2,30,folder/matchedM021.png,2,1.401276928,1,1,1,1
9,2,31,folder/matchedM072IN.png,4,3.052803252,1,4,1,4
9,2,32,folder/matchedM005SR.png,6,3.61050345,1,2,1,2
9,2,33,folder/matchedM001IN.png,4,4.163530675,1,2,1,2
9,2,34,folder/matchedM020.png,1,1.011182372,1,4,2,4
9,2,35,folder/matchedM017.png,1,1.32131546,1,2,2,2
9,2,36,folder/matchedM017.png,2,1.332156893,1,1,1,1
9,2,37,folder/matchedM067SR.png,5,4.143667257,1,2,2,2
9,2,38,folder/matchedM016IN.png,3,0.663563068,1,4,2,4
9,2,39,folder/matchedM021SL.png,6,8.674458802,0,1,1,4
9,2,40,folder/matchedM049IN.png,3,1.269267012,1,2,2,2
9,2,41,folder/matchedM006SL.png,5,3.053289926,1,2,2,2
9,2,42,folder/matchedM067.png,1,0.958410201,1,3,2,3
9,2,43,folder/matchedM020IN.png,3,1.362058431,1,3,2,3
9,2,44,folder/matchedM008.png,1,1.001990956,1,1,2,1
9,2,45,folder/matchedM019SL.png,6,6.143800532,1,1,1,1
9,2,46,folder/matchedM021IN.png,3,2.200722527,1,2,2,2
9,2,47,folder/matchedM072SL.png,5,1.342064423,1,1,2,1
9,2,48,folder/matchedM001SR.png,5,7.764219624,1,3,2,3
9,2,49,folder/matchedM008SR.png,5,1.321838208,1,4,2,4
9,2,50,folder/matchedM019.png,2,1.060692378,1,2,1,2
9,2,51,folder/matchedM072.png,1,1.237214746,1,3,2,3
9,2,52,folder/matchedM024IN.png,3,1.702209292,1,2,2,2
9,2,53,folder/matchedM067IN.png,3,3.862729167,1,2,2,2
9,2,54,folder/matchedM004.png,1,1.007241457,1,3,2,3
9,2,55,folder/matchedM021IN.png,4,3.079047741,1,2,1,2
9,2,56,folder/matchedM024SR.png,5,1.240139195,1,4,2,4
9,2,57,folder/matchedM020SR.png,5,1.48184334,1,1,2,1
9,2,58,folder/matchedM049.png,2,1.119150324,1,2,1,2
9,2,59,folder/matchedM004IN.png,4,4.942998905,1,2,1,2
9,2,60,folder/matchedM008IN.png,3,1.370943142,1,4,2,4
9,2,61,folder/matchedM049SL.png,6,1.838961065,1,3,1,3
9,2,62,folder/matchedM004SL.png,6,4.082946233,1,3,1,3
9,2,63,folder/matchedM002.png,2,1.571865447,1,1,1,1
9,2,64,folder/matchedM019.png,1,3.712220211,1,3,2,3
9,2,65,folder/matchedM020.png,2,0.971064772,1,4,1,4
9,2,66,folder/matchedM008IN.png,4,0.871547413,1,4,1,4
9,2,67,folder/matchedM002.png,1,1.291890133,1,1,2,1
9,2,68,folder/matchedM006.png,1,1.091594439,1,3,2,3
9,2,69,folder/matchedM019IN.png,4,1.848687961,1,2,1,2
9,2,70,folder/matchedM016IN.png,4,2.098265276,1,4,1,4
9,2,71,folder/matchedM072IN.png,3,0.882043067,1,4,2,4
9,2,72,folder/matchedM072.png,2,1.459938689,1,2,1,2
9,2,73,folder/matchedM008SR.png,6,1.492270254,1,4,1,4
9,2,74,folder/matchedM002IN.png,4,1.291149803,1,3,1,3
9,2,75,folder/matchedM049IN.png,4,2.272120681,1,3,1,3
9,2,76,folder/matchedM017SR.png,5,1.971705377,1,2,2,2
9,2,77,folder/matchedM049SL.png,5,1.132289651,1,1,2,1
9,2,78,folder/matchedM005IN.png,3,1.161708219,1,1,2,1
9,2,79,folder/matchedM005SR.png,5,1.012004986,1,4,2,4
9,2,80,folder/matchedM016SL.png,5,1.220189345,1,2,2,2
9,2,81,folder/matchedM016SL.png,6,1.439062003,1,1,1,1
9,2,82,folder/matchedM003IN.png,4,8.152892604,1,1,1,1
9,2,83,folder/matchedM003SR.png,6,7.412523436,1,2,1,2
9,2,84,folder/matchedM019IN.png,3,2.149543409,1,2,2,2
9,2,85,folder/matchedM001.png,1,1.071333452,1,1,2,1
9,2,86,folder/matchedM008.png,2,1.038124859,1,1,1,1
9,2,87,folder/matchedM001.png,2,1.29239843,1,3,1,3
9,2,88,folder/matchedM006SL.png,6,1.460855242,1,2,1,2
9,2,89,folder/matchedM024.png,1,1.138076918,1,3,2,3
9,2,90,folder/matchedM021.png,1,1.181097851,0,4,2,1
9,2,91,folder/matchedM006IN.png,4,0.991995994,1,2,1,2
9,2,92,folder/matchedM004IN.png,3,0.750153267,1,4,2,4
9,2,93,folder/matchedM072SL.png,6,2.11202579,1,2,1,2
9,2,94,folder/matchedM016.png,2,1.201685282,1,2,1,2
9,2,95,folder/matchedM020IN.png,4,1.932163736,1,2,1,2
9,2,96,folder/matchedM006.png,2,1.101603943,1,1,1,1
10,1,1,folder/matchedM072SL.png,6,1.172745438,1,2,1,2
10,1,2,folder/matchedM008.png,1,1.298571753,1,4,2,4
10,1,3,folder/matchedM024SR.png,6,1.60686527,1,2,1,2
10,1,4,folder/matchedM067SR.png,6,1.311352127,1,2,1,2
10,1,5,folder/matchedM005SR.png,6,1.570720832,1,2,1,2
10,1,6,folder/matchedM002SL.png,5,1.760339267,1,3,2,3
10,1,7,folder/matchedM021SL.png,5,1.844865891,1,1,2,1
10,1,8,folder/matchedM072IN.png,4,2.037312722,1,1,1,1
10,1,9,folder/matchedM005.png,2,1.727372977,1,2,1,2
10,1,10,folder/matchedM004.png,1,1.161427807,1,1,2,1
10,1,11,folder/matchedM072.png,2,1.100807672,1,1,1,1
10,1,12,folder/matchedM020.png,2,1.785309573,1,3,1,3
10,1,13,folder/matchedM016IN.png,4,2.447962224,1,3,1,3
10,1,14,folder/matchedM005IN.png,3,1.468440607,1,4,2,4
10,1,15,folder/matchedM067SR.png,5,2.41430974,1,1,2,1
10,1,16,folder/matchedM024SR.png,5,1.560021757,1,4,2,4
10,1,17,folder/matchedM016SL.png,5,1.346507514,1,1,2,1
10,1,18,folder/matchedM016.png,2,2.455153568,1,3,1,3
10,1,19,folder/matchedM017IN.png,4,2.961633156,1,4,1,4
10,1,20,folder/matchedM067IN.png,4,2.815836113,1,2,1,2
10,1,21,folder/matchedM008.png,2,1.781407402,1,4,1,4
10,1,22,folder/matchedM008IN.png,3,2.58639136,1,2,2,2
10,1,23,folder/matchedM006.png,1,1.440786329,1,1,2,1
10,1,24,folder/matchedM002.png,2,1.341544854,1,3,1,3
10,1,25,folder/matchedM020IN.png,3,2.608916734,1,3,2,3
10,1,26,folder/matchedM002IN.png,4,1.156899352,1,2,1,2
10,1,27,folder/matchedM067.png,2,3.282419399,1,4,1,4
10,1,28,folder/matchedM020.png,1,1.889259927,1,1,2,1
10,1,29,folder/matchedM006IN.png,4,0.872323233,1,1,1,1
10,1,30,folder/matchedM067.png,1,1.286619931,1,4,2,4
10,1,31,folder/matchedM016SL.png,6,1.136323814,1,1,1,1
10,1,32,folder/matchedM049SL.png,6,1.713576277,1,2,1,2
10,1,33,folder/matchedM004IN.png,4,1.836555867,1,3,1,3
10,1,34,folder/matchedM017SR.png,5,1.63327115,1,1,2,1
10,1,35,folder/matchedM001SR.png,5,2.1550238,1,1,2,1
10,1,36,folder/matchedM067IN.png,3,1.767050291,1,3,2,3
10,1,37,folder/matchedM005IN.png,4,1.385426743,1,2,1,2
10,1,38,folder/matchedM002IN.png,3,1.262455293,1,1,2,1
10,1,39,folder/matchedM006SL.png,5,1.528228898,1,1,2,1
10,1,40,folder/matchedM017SR.png,6,1.991556694,1,2,1,2
10,1,41,folder/matchedM021IN.png,4,1.818605316,1,2,1,2
10,1,42,folder/matchedM019SL.png,5,3.779247971,1,1,2,1
10,1,43,folder/matchedM003.png,1,1.681632087,1,4,2,4
10,1,44,folder/matchedM006SL.png,6,2.096526176,1,3,1,3
10,1,45,folder/matchedM017.png,2,1.307510825,1,2,1,2
10,1,46,folder/matchedM005SR.png,5,1.785145135,1,1,2,1
10,1,47,folder/matchedM019SL.png,6,2.280603502,1,2,1,2
10,1,48,folder/matchedM024IN.png,3,2.245454744,1,4,2,4
10,1,49,folder/matchedM020IN.png,4,2.625612446,1,2,1,2
10,1,50,folder/matchedM049IN.png,3,3.550217173,1,3,2,3
10,1,51,folder/matchedM003IN.png,3,2.098392603,1,2,2,2
10,1,52,folder/matchedM017IN.png,3,1.897442,1,3,2,3
10,1,53,folder/matchedM016.png,1,2.194419436,1,3,2,3
10,1,54,folder/matchedM021IN.png,3,1.958435671,1,1,2,1
10,1,55,folder/matchedM003SR.png,5,10.02835963,-1,3,2,0
10,1,56,folder/matchedM049.png,2,1.438024789,1,1,1,1
10,1,57,folder/matchedM004SL.png,5,1.196263411,1,2,2,2
10,1,58,folder/matchedM001.png,2,1.09878585,1,2,1,2
10,1,59,folder/matchedM021.png,1,3.114163393,1,4,2,4
10,1,60,folder/matchedM024.png,1,2.73264745,1,1,2,1
10,1,61,folder/matchedM049SL.png,5,2.702583689,1,2,2,2
10,1,62,folder/matchedM021SL.png,6,4.321134381,1,3,1,3
10,1,63,folder/matchedM001.png,1,1.916167002,1,4,2,4
10,1,64,folder/matchedM019IN.png,4,4.397691388,1,2,1,2
10,1,65,folder/matchedM016IN.png,3,2.570417802,1,1,2,1
10,1,66,folder/matchedM072.png,1,1.818271545,1,1,2,1
10,1,67,folder/matchedM004IN.png,3,1.720783858,1,2,2,2
10,1,68,folder/matchedM001IN.png,3,1.403671518,1,4,2,4
10,1,69,folder/matchedM001IN.png,4,2.999570489,1,3,1,3
10,1,70,folder/matchedM021.png,2,0.945849206,1,1,1,1
10,1,71,folder/matchedM017.png,1,1.390638246,1,3,2,3
10,1,72,folder/matchedM001SR.png,6,1.500386772,1,1,1,1
10,1,73,folder/matchedM003IN.png,4,1.304809036,1,1,1,1
10,1,74,folder/matchedM072SL.png,5,1.671591389,1,2,2,2
10,1,75,folder/matchedM002SL.png,6,2.301147669,1,3,1,3
10,1,76,folder/matchedM049.png,1,1.801735715,1,1,2,1
10,1,77,folder/matchedM019.png,2,1.513657608,1,1,1,1
10,1,78,folder/matchedM003.png,2,1.750914853,1,3,1,3
10,1,79,folder/matchedM019.png,1,2.15497381,1,4,2,4
10,1,80,folder/matchedM006.png,2,0.955028212,1,1,1,1
10,1,81,folder/matchedM008IN.png,4,1.703290524,1,2,1,2
10,1,82,folder/matchedM008SR.png,6,1.08480878,1,1,1,1
10,1,83,folder/matchedM049IN.png,4,2.08221848,1,4,1,4
10,1,84,folder/matchedM072IN.png,3,3.413900583,1,1,2,1
10,1,85,folder/matchedM006IN.png,3,4.474825064,1,4,2,4
10,1,86,folder/matchedM003SR.png,6,10.01042606,-1,3,1,0
10,1,87,folder/matchedM002.png,1,1.773039608,1,4,2,4
10,1,88,folder/matchedM005.png,1,1.996306668,1,2,2,2
10,1,89,folder/matchedM004.png,2,2.718551928,1,3,1,3
10,1,90,folder/matchedM024.png,2,1.403561321,1,1,1,1
10,1,91,folder/matchedM004SL.png,6,1.619532155,1,2,1,2
10,1,92,folder/matchedM020SR.png,5,1.397972897,1,3,2,3
10,1,93,folder/matchedM008SR.png,5,1.649638314,1,3,2,3
10,1,94,folder/matchedM024IN.png,4,4.354575063,1,3,1,3
10,1,95,folder/matchedM020SR.png,6,1.065147658,1,1,1,1
10,1,96,folder/matchedM019IN.png,3,1.87407197,1,3,2,3
11,1,1,folder/matchedM072IN.png,4,1.43366154,1,2,1,2
11,1,2,folder/matchedM001IN.png,3,1.29305628,1,2,2,2
11,1,3,folder/matchedM006SL.png,5,3.51357848,1,1,2,1
11,1,4,folder/matchedM021IN.png,3,3.101983386,1,1,2,1
11,1,5,folder/matchedM017SR.png,5,2.0784109,1,1,2,1
11,1,6,folder/matchedM005.png,1,1.733962423,1,3,2,3
11,1,7,folder/matchedM001.png,2,3.379601892,1,2,1,2
11,1,8,folder/matchedM020IN.png,3,2.42899945,1,4,2,4
11,1,9,folder/matchedM072.png,1,1.651001589,1,4,2,4
11,1,10,folder/matchedM016.png,2,1.480964209,1,3,1,3
11,1,11,folder/matchedM002.png,2,1.601339676,1,2,1,2
11,1,12,folder/matchedM016.png,1,3.858359125,1,4,2,4
11,1,13,folder/matchedM008SR.png,5,2.109514797,1,1,2,1
11,1,14,folder/matchedM067.png,2,2.979416201,1,3,1,3
11,1,15,folder/matchedM024IN.png,3,1.960830205,1,1,2,1
11,1,16,folder/matchedM005IN.png,3,1.94294816,1,2,2,2
11,1,17,folder/matchedM016IN.png,3,2.516771981,1,1,2,1
11,1,18,folder/matchedM005.png,2,1.744761934,1,1,1,1
11,1,19,folder/matchedM021.png,1,4.705824633,1,1,2,1
11,1,20,folder/matchedM049.png,2,3.356926222,1,2,1,2
11,1,21,folder/matchedM004SL.png,6,3.927322431,1,1,1,1
11,1,22,folder/matchedM017IN.png,4,3.224847206,1,3,1,3
11,1,23,folder/matchedM017.png,2,1.426913143,1,1,1,1
11,1,24,folder/matchedM003.png,2,2.822899054,1,4,1,4
11,1,25,folder/matchedM017SR.png,6,2.061387533,1,4,1,4
11,1,26,folder/matchedM024SR.png,5,10.00710134,-1,4,2,0
11,1,27,folder/matchedM072SL.png,5,10.00539132,-1,3,2,0
11,1,28,folder/matchedM049SL.png,5,5.367000435,1,3,2,3
11,1,29,folder/matchedM006IN.png,3,1.299645952,1,2,2,2
11,1,30,folder/matchedM072.png,2,2.483416853,0,3,1,2
11,1,31,folder/matchedM020.png,1,1.280589663,1,3,2,3
11,1,32,folder/matchedM008IN.png,4,6.407198376,1,4,1,4
11,1,33,folder/matchedM049.png,1,1.533348236,1,3,2,3
11,1,34,folder/matchedM005SR.png,5,2.193386083,1,4,2,4
11,1,35,folder/matchedM003SR.png,5,6.419239235,1,1,2,1
11,1,36,folder/matchedM006.png,2,2.392102522,1,2,1,2
11,1,37,folder/matchedM006IN.png,4,2.385938969,1,1,1,1
11,1,38,folder/matchedM004IN.png,3,1.458861555,1,2,2,2
11,1,39,folder/matchedM002.png,1,1.264411687,1,4,2,4
11,1,40,folder/matchedM001SR.png,5,10.01054876,-1,3,2,0
11,1,41,folder/matchedM004IN.png,4,4.016187338,1,4,1,4
11,1,42,folder/matchedM016SL.png,5,4.134234551,1,4,2,4
11,1,43,folder/matchedM003IN.png,3,10.00938289,-1,4,2,0
11,1,44,folder/matchedM019IN.png,4,4.647055918,1,4,1,4
11,1,45,folder/matchedM024IN.png,4,2.163755433,1,2,1,2
11,1,46,folder/matchedM008IN.png,3,2.185779975,1,3,2,3
11,1,47,folder/matchedM002IN.png,4,2.125607784,1,2,1,2
11,1,48,folder/matchedM024SR.png,6,1.801578997,1,2,1,2
11,1,49,folder/matchedM008.png,2,2.584425814,1,3,1,3
11,1,50,folder/matchedM024.png,1,2.68755022,1,3,2,3
11,1,51,folder/matchedM072IN.png,3,4.383252874,1,4,2,4
11,1,52,folder/matchedM003.png,1,1.824163431,1,4,2,4
11,1,53,folder/matchedM020IN.png,4,4.489466174,1,1,1,1
11,1,54,folder/matchedM049SL.png,6,6.649745447,1,4,1,4
11,1,55,folder/matchedM002IN.png,3,10.00066108,-1,3,2,0
11,1,56,folder/matchedM067SR.png,5,6.440731165,1,4,2,4
11,1,57,folder/matchedM016SL.png,6,4.429308807,1,1,1,1
11,1,58,folder/matchedM001IN.png,4,2.338176745,1,3,1,3
11,1,59,folder/matchedM002SL.png,5,2.718817657,1,2,2,2
11,1,60,folder/matchedM049IN.png,4,3.63941921,1,3,1,3
11,1,61,folder/matchedM020SR.png,5,3.936699582,1,2,2,2
11,1,62,folder/matchedM020.png,2,4.287976873,1,4,1,4
11,1,63,folder/matchedM006.png,1,2.571104227,1,2,2,2
11,1,64,folder/matchedM067.png,1,1.701509521,1,4,2,4
11,1,65,folder/matchedM003SR.png,6,8.347021171,1,1,1,1
11,1,66,folder/matchedM024.png,2,2.228804035,1,1,1,1
11,1,67,folder/matchedM019IN.png,3,8.101697391,1,4,2,4
11,1,68,folder/matchedM017.png,1,2.158043412,1,2,2,2
11,1,69,folder/matchedM006SL.png,6,2.950509989,1,2,1,2
11,1,70,folder/matchedM067SR.png,6,4.418915807,1,4,1,4
11,1,71,folder/matchedM004.png,2,1.451406454,1,2,1,2
11,1,72,folder/matchedM008.png,1,2.037410288,1,1,2,1
11,1,73,folder/matchedM001SR.png,6,5.581275863,1,3,1,3
11,1,74,folder/matchedM021SL.png,6,2.380384436,1,1,1,1
11,1,75,folder/matchedM021SL.png,5,9.46171545,0,4,2,1
11,1,76,folder/matchedM005SR.png,6,9.909117273,1,3,1,3
11,1,77,folder/matchedM001.png,1,3.51378028,1,4,2,4
11,1,78,folder/matchedM067IN.png,3,5.929498511,1,3,2,3
11,1,79,folder/matchedM008SR.png,6,3.00051225,1,1,1,1
11,1,80,folder/matchedM017IN.png,3,10.00721281,-1,2,2,0
11,1,81,folder/matchedM005IN.png,4,8.344542627,1,3,1,3
11,1,82,folder/matchedM016IN.png,4,4.057877283,1,4,1,4
11,1,83,folder/matchedM021.png,2,2.158427994,1,2,1,2
11,1,84,folder/matchedM072SL.png,6,1.694231742,1,1,1,1
11,1,85,folder/matchedM004SL.png,5,3.836933882,1,1,2,1
11,1,86,folder/matchedM019SL.png,6,3.440788361,1,1,1,1
11,1,87,folder/matchedM067IN.png,4,3.459540346,1,4,1,4
11,1,88,folder/matchedM020SR.png,6,4.179385329,1,2,1,2
11,1,89,folder/matchedM019SL.png,5,10.00437151,-1,3,2,0
11,1,90,folder/matchedM004.png,1,1.856320455,1,3,2,3
11,1,91,folder/matchedM003IN.png,4,2.58956951,1,1,1,1
11,1,92,folder/matchedM049IN.png,3,3.129588227,1,2,2,2
11,1,93,folder/matchedM021IN.png,4,2.096692271,1,3,1,3
11,1,94,folder/matchedM019.png,2,1.6750638,1,2,1,2
11,1,95,folder/matchedM002SL.png,6,3.002889707,1,4,1,4
11,1,96,folder/matchedM019.png,1,4.486860014,1,1,2,1
12,2,1,folder/matchedM017SR.png,5,3.69576885,1,3,2,3
12,2,2,folder/matchedM008.png,1,1.321612411,1,1,2,1
12,2,3,folder/matchedM021SL.png,5,1.723291879,1,1,2,1
12,2,4,folder/matchedM001IN.png,3,4.043555842,1,3,2,3
12,2,5,folder/matchedM072.png,2,1.770727961,1,2,1,2
12,2,6,folder/matchedM004.png,2,1.561961389,1,4,1,4
12,2,7,folder/matchedM020IN.png,4,2.022037411,1,3,1,3
12,2,8,folder/matchedM005IN.png,4,2.168642333,1,4,1,4
12,2,9,folder/matchedM001SR.png,6,1.997733851,1,4,1,4
12,2,10,folder/matchedM016SL.png,5,1.398071152,1,4,2,4
12,2,11,folder/matchedM008IN.png,3,1.33146103,1,2,2,2
12,2,12,folder/matchedM005IN.png,3,1.47164775,0,1,2,4
12,2,13,folder/matchedM016.png,1,1.251974157,1,3,2,3
12,2,14,folder/matchedM005SR.png,5,3.972902881,1,4,2,4
12,2,15,folder/matchedM019.png,1,1.451631145,1,2,2,2
12,2,16,folder/matchedM001.png,1,1.961193005,1,4,2,4
12,2,17,folder/matchedM020.png,1,2.766794049,1,3,2,3
12,2,18,folder/matchedM067IN.png,4,1.741843561,1,4,1,4
12,2,19,folder/matchedM072IN.png,3,1.291027378,1,4,2,4
12,2,20,folder/matchedM017IN.png,4,1.650936713,1,4,1,4
12,2,21,folder/matchedM021SL.png,6,2.300877239,1,2,1,2
12,2,22,folder/matchedM002SL.png,5,1.301133977,1,2,2,2
12,2,23,folder/matchedM072SL.png,5,0.960524599,1,3,2,3
12,2,24,folder/matchedM067SR.png,5,2.269202308,1,4,2,4
12,2,25,folder/matchedM008IN.png,4,2.051203938,1,2,1,2
12,2,26,folder/matchedM003IN.png,4,1.246542827,1,2,1,2
12,2,27,folder/matchedM006SL.png,5,2.050558553,1,1,2,1
12,2,28,folder/matchedM021IN.png,4,1.760768692,1,4,1,4
12,2,29,folder/matchedM004SL.png,5,1.319835842,1,1,2,1
12,2,30,folder/matchedM002.png,1,1.079542849,1,3,2,3
12,2,31,folder/matchedM067.png,1,0.829445779,1,2,2,2
12,2,32,folder/matchedM008SR.png,5,1.119925163,1,1,2,1
12,2,33,folder/matchedM004SL.png,6,1.489396667,1,4,1,4
12,2,34,folder/matchedM008.png,2,2.309573986,1,3,1,3
12,2,35,folder/matchedM049.png,1,1.469311371,1,1,2,1
12,2,36,folder/matchedM001SR.png,5,2.35813138,1,3,2,3
12,2,37,folder/matchedM024.png,2,2.1398782,0,2,1,3
12,2,38,folder/matchedM006.png,2,1.410027613,1,2,1,2
12,2,39,folder/matchedM024SR.png,5,1.489732268,1,2,2,2
12,2,40,folder/matchedM072IN.png,4,1.406599095,1,2,1,2
12,2,41,folder/matchedM049SL.png,5,3.758194563,1,1,2,1
12,2,42,folder/matchedM020SR.png,5,0.790260088,1,2,2,2
12,2,43,folder/matchedM002IN.png,3,1.607024735,1,2,2,2
12,2,44,folder/matchedM002IN.png,4,1.129977195,0,4,1,1
12,2,45,folder/matchedM004IN.png,3,1.208747225,1,4,2,4
12,2,46,folder/matchedM024.png,1,1.229557323,1,4,2,4
12,2,47,folder/matchedM004.png,1,1.374586533,1,4,2,4
12,2,48,folder/matchedM002SL.png,6,2.330142642,0,3,1,4
12,2,49,folder/matchedM019SL.png,5,4.25099172,1,3,2,3
12,2,50,folder/matchedM003.png,2,1.469720212,1,2,1,2
12,2,51,folder/matchedM024IN.png,3,0.919618493,1,2,2,2
12,2,52,folder/matchedM021IN.png,3,2.260088792,1,4,2,4
12,2,53,folder/matchedM003SR.png,5,1.229325106,1,4,2,4
12,2,54,folder/matchedM021.png,1,1.30801146,1,2,2,2
12,2,55,folder/matchedM006IN.png,4,1.626751905,0,2,1,3
12,2,56,folder/matchedM003SR.png,6,1.310256617,1,2,1,2
12,2,57,folder/matchedM008SR.png,6,1.048016135,1,2,1,2
12,2,58,folder/matchedM017IN.png,3,1.171221382,1,3,2,3
12,2,59,folder/matchedM004IN.png,4,1.387995937,1,3,1,3
12,2,60,folder/matchedM072SL.png,6,1.439449794,1,3,1,3
12,2,61,folder/matchedM019SL.png,6,1.570706918,1,1,1,1
12,2,62,folder/matchedM017SR.png,6,1.470424232,1,1,1,1
12,2,63,folder/matchedM067SR.png,6,2.470243761,1,2,1,2
12,2,64,folder/matchedM005.png,1,1.121775664,1,1,2,1
12,2,65,folder/matchedM003.png,1,1.448382694,1,1,2,1
12,2,66,folder/matchedM016.png,2,1.599843344,1,4,1,4
12,2,67,folder/matchedM001.png,2,1.490197428,1,1,1,1
12,2,68,folder/matchedM024SR.png,6,0.839944256,1,4,1,4
12,2,69,folder/matchedM049.png,2,1.970310077,1,3,1,3
12,2,70,folder/matchedM020.png,2,1.099439436,1,4,1,4
12,2,71,folder/matchedM006.png,1,1.477116606,1,3,2,3
12,2,72,folder/matchedM019.png,2,1.869627927,1,3,1,3
12,2,73,folder/matchedM020SR.png,6,1.299920192,1,2,1,2
12,2,74,folder/matchedM001IN.png,4,1.689857374,1,1,1,1
12,2,75,folder/matchedM067.png,2,1.450692231,1,3,1,3
12,2,76,folder/matchedM049IN.png,3,1.67999718,1,1,2,1
12,2,77,folder/matchedM005SR.png,6,0.877868631,1,4,1,4
12,2,78,folder/matchedM005.png,2,1.206673822,1,2,1,2
12,2,79,folder/matchedM019IN.png,3,3.999435297,1,4,2,4
12,2,80,folder/matchedM049SL.png,6,0.949131688,1,3,1,3
12,2,81,folder/matchedM002.png,2,1.413186207,1,1,1,1
12,2,82,folder/matchedM049IN.png,4,3.35987611,1,3,1,3
12,2,83,folder/matchedM067IN.png,3,2.127408612,1,1,2,1
12,2,84,folder/matchedM017.png,2,3.769541673,1,4,1,4
12,2,85,folder/matchedM006SL.png,6,1.879727586,1,4,1,4
12,2,86,folder/matchedM003IN.png,3,1.592393306,1,2,2,2
12,2,87,folder/matchedM016IN.png,3,0.997117768,1,2,2,2
12,2,88,folder/matchedM021.png,2,2.859334797,1,4,1,4
12,2,89,folder/matchedM017.png,1,1.848844745,1,1,2,1
12,2,90,folder/matchedM016SL.png,6,1.489200856,1,4,1,4
12,2,91,folder/matchedM006IN.png,3,1.08901939,1,2,2,2
12,2,92,folder/matchedM016IN.png,4,1.0593155,1,3,1,3
12,2,93,folder/matchedM024IN.png,4,1.109910173,1,1,1,1
12,2,94,folder/matchedM072.png,1,1.149636087,1,2,2,2
12,2,95,folder/matchedM019IN.png,4,1.368709054,1,4,1,4
12,2,96,folder/matchedM020IN.png,3,2.036817737,1,4,2,4
13,2,1,folder/matchedM004SL.png,6,8.387206501,1,4,1,4
13,2,2,folder/matchedM001IN.png,3,1.552788129,1,3,2,3
13,2,3,folder/matchedM019.png,2,1.612104262,1,1,1,1
13,2,4,folder/matchedM002SL.png,5,1.24593761,1,2,2,2
13,2,5,folder/matchedM020.png,1,1.576665723,1,3,2,3
13,2,6,folder/matchedM002SL.png,6,10.00454494,-1,4,1,0
13,2,7,folder/matchedM003.png,1,1.30022151,1,3,2,3
13,2,8,folder/matchedM003.png,2,1.661892858,1,3,1,3
13,2,9,folder/matchedM067IN.png,3,1.499145332,1,2,2,2
13,2,10,folder/matchedM006.png,1,1.354312523,1,3,2,3
13,2,11,folder/matchedM024IN.png,3,1.221308255,1,3,2,3
13,2,12,folder/matchedM049IN.png,3,1.340900654,1,1,2,1
13,2,13,folder/matchedM021SL.png,6,2.361391455,1,2,1,2
13,2,14,folder/matchedM001SR.png,6,2.93291748,1,1,1,1
13,2,15,folder/matchedM019IN.png,3,2.941039489,1,3,2,3
13,2,16,folder/matchedM067SR.png,6,2.969718773,1,4,1,4
13,2,17,folder/matchedM020SR.png,6,3.581077306,1,1,1,1
13,2,18,folder/matchedM049SL.png,6,2.70052662,1,2,1,2
13,2,19,folder/matchedM024IN.png,4,1.486054645,1,4,1,4
13,2,20,folder/matchedM019IN.png,4,2.387457974,1,2,1,2
13,2,21,folder/matchedM008.png,2,1.610172336,1,4,1,4
13,2,22,folder/matchedM072.png,2,1.249228114,1,3,1,3
13,2,23,folder/matchedM004IN.png,4,1.770602623,1,4,1,4
13,2,24,folder/matchedM024.png,1,1.179850325,1,4,2,4
13,2,25,folder/matchedM019SL.png,6,3.80087191,1,2,1,2
13,2,26,folder/matchedM017.png,1,1.429475611,1,2,2,2
13,2,27,folder/matchedM024SR.png,5,1.358293062,1,4,2,4
13,2,28,folder/matchedM021IN.png,4,4.970247107,1,3,1,3
13,2,29,folder/matchedM006.png,2,1.256963609,1,1,1,1
13,2,30,folder/matchedM006SL.png,5,1.327745506,1,4,2,4
13,2,31,folder/matchedM067.png,2,1.577615321,1,1,1,1
13,2,32,folder/matchedM072IN.png,4,2.499439886,1,3,1,3
13,2,33,folder/matchedM008IN.png,4,1.428873456,1,3,1,3
13,2,34,folder/matchedM006IN.png,4,0.998020224,1,2,1,2
13,2,35,folder/matchedM005IN.png,3,1.228697308,1,4,2,4
13,2,36,folder/matchedM001SR.png,5,3.379487359,1,4,2,4
13,2,37,folder/matchedM017.png,2,2.589529567,1,2,1,2
13,2,38,folder/matchedM006IN.png,3,1.34943412,1,3,2,3
13,2,39,folder/matchedM019.png,1,1.299267142,1,1,2,1
13,2,40,folder/matchedM003IN.png,4,7.461329278,1,4,1,4
13,2,41,folder/matchedM008IN.png,3,1.578171451,1,3,2,3
