"","Subject","Trial","Type","Stimulus","Eye","Location","Alpha","Orientation","fadeIn","Response","RT","Acc","missedFrames","Order"
"1","1",1,"bRMS","f42887_e_004",NA,9,0.579954613479529,"0",0,1,0.663945113645241,1,0,1
"2","1",2,"bRMS","f42887_e_018",NA,10,0.465553672174608,"180",0,2,0.528555036737089,1,0,1
"3","1",3,"bRMS","f42887_e_012",NA,10,0.465553672174608,"0",0,2,1.36734695269661,1,0,1
"4","1",4,"bRMS","f42887_e_015",NA,9,0.722467405584208,"180",0,1,0.628995485105406,1,0,1
"5","1",5,"bRMS","f42887_e_002",NA,9,0.9,"180",0,1,0.678869800056418,1,0,1
"6","1",6,"bRMS","f42887_e_004",NA,10,0.373719281884655,"0",0,2,0.855674382435609,1,0,1
"7","1",7,"bRMS","f42887_e_003",NA,9,0.9,"0",0,1,0.560017142832294,1,0,1
"8","1",8,"bRMS","f42887_e_020",NA,9,0.3,"180",0,1,0.99719393614032,1,0,1
"9","1",9,"bRMS","f42887_e_008",NA,10,0.3,"180",0,1,1.05868296055633,0,0,1
"10","1",10,"bRMS","f42887_e_019",NA,9,0.579954613479529,"0",0,1,0.660366693709875,1,0,1
"11","1",11,"bRMS","f42887_e_009",NA,10,0.579954613479529,"180",0,2,1.01299850390205,1,0,1
"12","1",12,"bRMS","f42887_e_001",NA,9,0.465553672174608,"0",0,1,0.631733211655956,1,0,1
"13","1",13,"bRMS","f42887_e_021",NA,9,0.373719281884655,"180",0,1,1.55870160959239,1,0,1
"14","1",14,"bRMS","f42887_e_006",NA,10,0.465553672174608,"0",0,2,0.6619620600286,1,0,1
"15","1",15,"bRMS","f42887_e_012",NA,9,0.579954613479529,"0",0,1,0.598696203600412,1,0,1
"16","1",16,"bRMS","f42887_e_011",NA,10,0.722467405584208,"180",0,2,0.673688424087231,1,0,1
"17","1",17,"bRMS","f42887_e_003",NA,10,0.373719281884655,"180",0,1,0.505596177566986,0,0,1
"18","1",18,"bRMS","f42887_e_017",NA,9,0.373719281884655,"180",0,1,0.697723875588053,1,0,1
"19","1",19,"bRMS","f42887_e_025",NA,9,0.9,"180",0,1,0.554094784140034,1,0,1
"20","1",20,"bRMS","f42887_e_006",NA,9,0.722467405584208,"0",0,1,0.488546303420662,1,0,1
"21","1",21,"bRMS","f42887_e_029",NA,9,0.373719281884655,"0",0,1,1.13670028598972,1,0,1
"22","1",22,"bRMS","f42887_e_016",NA,10,0.579954613479529,"180",0,2,0.699760486553714,1,0,1
"23","1",23,"bRMS","f42887_e_000",NA,9,0.722467405584208,"0",0,1,0.584902040553061,1,0,1
"24","1",24,"bRMS","f42887_e_011",NA,9,0.722467405584208,"0",0,1,0.709015918286241,1,0,1
"25","1",25,"bRMS","f42887_e_019",NA,9,0.3,"0",0,1,0.612012727655383,1,0,1
"26","1",26,"bRMS","f42887_e_015",NA,10,0.373719281884655,"180",0,1,0.559319142927052,0,0,1
"27","1",27,"bRMS","f42887_e_029",NA,9,0.579954613479529,"180",0,1,0.572152578843088,1,0,1
"28","1",28,"bRMS","f42887_e_002",NA,10,0.579954613479529,"0",0,2,0.648412872524204,1,0,1
"29","1",29,"bRMS","f42887_e_011",NA,9,0.465553672174608,"180",0,1,0.736968443623482,1,0,1
"30","1",30,"bRMS","f42887_e_002",NA,9,0.722467405584208,"0",0,1,0.600430737495117,1,0,1
"31","1",31,"bRMS","f42887_e_003",NA,9,0.579954613479529,"180",0,1,0.56341380665981,1,0,1
"32","1",32,"bRMS","f42887_e_027",NA,10,0.579954613479529,"0",0,2,0.775884890221278,1,0,1
"33","1",33,"bRMS","f42887_e_000",NA,9,0.579954613479529,"180",0,1,0.645406700656167,1,0,1
"34","1",34,"bRMS","f42887_e_022",NA,9,0.722467405584208,"0",0,1,0.551075818564641,1,0,1
"35","1",35,"bRMS","f42887_e_001",NA,9,0.373719281884655,"180",0,1,0.676253848005217,1,0,1
"36","1",36,"bRMS","f42887_e_007",NA,9,0.722467405584208,"180",0,1,0.755040937001468,1,0,1
"37","1",37,"bRMS","f42887_e_020",NA,10,0.3,"0",0,1,0.530738695402761,0,0,1
"38","1",38,"bRMS","f42887_e_020",NA,10,0.9,"180",0,2,0.648561953723402,1,0,1
"39","1",39,"bRMS","f42887_e_016",NA,10,0.9,"0",0,2,0.698071591008556,1,0,1
"40","1",40,"bRMS","f42887_e_000",NA,10,0.579954613479529,"0",0,2,0.649724673576202,1,0,1
"41","1",41,"bRMS","f42887_e_010",NA,9,0.373719281884655,"180",0,1,0.828258358973471,1,0,1
"42","1",42,"bRMS","f42887_e_005",NA,9,0.465553672174608,"0",0,1,0.893742067511994,1,0,1
"43","1",43,"bRMS","f42887_e_015",NA,10,0.722467405584208,"0",0,2,0.740743694355842,1,0,1
"44","1",44,"bRMS","f42887_e_002",NA,10,0.3,"0",0,1,0.776556372858977,0,0,1
"45","1",45,"bRMS","f42887_e_014",NA,10,0.3,"180",0,2,1.04608993968395,1,0,1
"46","1",46,"bRMS","f42887_e_006",NA,10,0.3,"180",0,1,0.809038050698291,0,0,1
"47","1",47,"bRMS","f42887_e_023",NA,10,0.579954613479529,"0",0,2,0.62832074869948,1,0,1
"48","1",48,"bRMS","f42887_e_027",NA,10,0.722467405584208,"180",0,2,0.623038771089341,1,0,1
"49","1",49,"bRMS","f42887_e_028",NA,9,0.3,"180",0,1,1.86409614327749,1,0,1
"50","1",50,"bRMS","f42887_e_010",NA,10,0.722467405584208,"180",0,2,0.71132334288086,1,0,1
"51","1",51,"bRMS","f42887_e_014",NA,9,0.579954613479529,"180",0,1,0.669563591844053,1,0,1
"52","1",52,"bRMS","f42887_e_028",NA,10,0.465553672174608,"0",0,2,0.710221725692463,1,0,1
"53","1",53,"bRMS","f42887_e_028",NA,10,0.722467405584208,"180",0,2,0.609028141197996,1,0,1
"54","1",54,"bRMS","f42887_e_023",NA,10,0.3,"180",0,2,4.69866129482216,1,0,1
"55","1",55,"bRMS","f42887_e_009",NA,10,0.3,"180",0,2,0.922096113963562,1,0,1
"56","1",56,"bRMS","f42887_e_015",NA,10,0.3,"180",0,2,5.66441984875928,1,0,1
"57","1",57,"bRMS","f42887_e_025",NA,10,0.9,"0",0,2,0.826692706541508,1,0,1
"58","1",58,"bRMS","f42887_e_022",NA,9,0.579954613479529,"180",0,1,0.861690189411092,1,0,1
"59","1",59,"bRMS","f42887_e_025",NA,10,0.465553672174608,"180",0,2,0.806178429837018,1,0,1
"60","1",60,"bRMS","f42887_e_004",NA,10,0.465553672174608,"0",0,2,0.761034518262022,1,0,1
"61","1",61,"bRMS","f42887_e_008",NA,10,0.373719281884655,"180",0,2,3.14134270850263,1,0,1
"62","1",62,"bRMS","f42887_e_006",NA,10,0.3,"0",0,2,2.6580445077725,1,0,1
"63","1",63,"bRMS","f42887_e_018",NA,10,0.9,"0",0,2,0.747593046884504,1,0,1
"64","1",64,"bRMS","f42887_e_013",NA,10,0.9,"180",0,2,0.634422874398297,1,0,1
"65","1",65,"bRMS","f42887_e_022",NA,9,0.9,"180",0,2,0.454529596285283,0,0,1
"66","1",66,"bRMS","f42887_e_002",NA,10,0.722467405584208,"180",0,2,0.69750071000999,1,0,1
"67","1",67,"bRMS","f42887_e_019",NA,10,0.9,"0",0,2,0.736732382798436,1,0,1
"68","1",68,"bRMS","f42887_e_013",NA,10,0.465553672174608,"180",0,2,0.741486255952623,1,0,1
"69","1",69,"bRMS","f42887_e_023",NA,10,0.3,"0",0,2,0.681112303336704,1,0,1
"70","1",70,"bRMS","f42887_e_007",NA,10,0.465553672174608,"0",0,2,0.658414616311347,1,0,1
"71","1",71,"bRMS","f42887_e_022",NA,9,0.465553672174608,"0",0,1,0.715729811632627,1,0,1
"72","1",72,"bRMS","f42887_e_004",NA,9,0.722467405584208,"0",0,1,0.649542044760892,1,0,1
"73","1",73,"bRMS","f42887_e_005",NA,10,0.373719281884655,"0",0,1,1.54673172033472,0,0,1
"74","1",74,"bRMS","f42887_e_010",NA,10,0.465553672174608,"0",0,2,0.680868075163744,1,0,1
"75","1",75,"bRMS","f42887_e_002",NA,10,0.465553672174608,"0",0,2,1.16097318598986,1,0,1
"76","1",76,"bRMS","f42887_e_023",NA,9,0.9,"0",0,1,0.655146775603498,1,0,1
"77","1",77,"bRMS","f42887_e_003",NA,10,0.3,"0",0,2,1.29678372122544,1,0,1
"78","1",78,"bRMS","f42887_e_000",NA,9,0.9,"0",0,1,0.608647147111697,1,0,1
"79","1",79,"bRMS","f42887_e_027",NA,9,0.373719281884655,"180",0,1,0.931515531850891,1,0,1
"80","1",80,"bRMS","f42887_e_010",NA,10,0.722467405584208,"0",0,2,0.681141227785702,1,0,1
"81","1",81,"bRMS","f42887_e_021",NA,9,0.465553672174608,"180",0,1,0.736380313161135,1,0,1
"82","1",82,"bRMS","f42887_e_009",NA,10,0.9,"180",0,2,0.614467181678265,1,0,1
"83","1",83,"bRMS","f42887_e_005",NA,9,0.722467405584208,"0",0,1,0.633508632201483,1,0,1
"84","1",84,"bRMS","f42887_e_005",NA,9,0.465553672174608,"180",0,1,0.84272400466034,1,0,1
"85","1",85,"bRMS","f42887_e_028",NA,9,0.9,"180",0,1,0.580146301304922,1,0,1
"86","1",86,"bRMS","f42887_e_019",NA,9,0.722467405584208,"0",0,1,0.535904726873923,1,0,1
"87","1",87,"bRMS","f42887_e_013",NA,10,0.722467405584208,"0",0,2,0.65371828104071,1,0,1
"88","1",88,"bRMS","f42887_e_019",NA,10,0.465553672174608,"180",0,2,1.11044279556882,1,0,1
"89","1",89,"bRMS","f42887_e_024",NA,10,0.373719281884655,"180",0,2,1.46218041217071,1,0,1
"90","1",90,"bRMS","f42887_e_021",NA,10,0.465553672174608,"0",0,2,1.58339952428105,1,0,1
"91","1",91,"bRMS","f42887_e_007",NA,10,0.579954613479529,"0",0,2,0.699013968218424,1,0,1
"92","1",92,"bRMS","f42887_e_022",NA,9,0.9,"0",0,1,0.651800869984072,1,0,1
"93","1",93,"bRMS","f42887_e_011",NA,9,0.579954613479529,"180",0,1,0.669966046005356,1,0,1
"94","1",94,"bRMS","f42887_e_020",NA,9,0.579954613479529,"0",0,1,0.704146551286613,1,0,1
"95","1",95,"bRMS","f42887_e_012",NA,10,0.579954613479529,"180",0,2,0.624089381721205,1,0,1
"96","1",96,"bRMS","f42887_e_008",NA,9,0.9,"0",0,1,0.51350779191489,1,0,1
"97","1",97,"bRMS","f42887_e_007",NA,9,0.722467405584208,"0",0,1,0.649205836918554,1,0,1
"98","1",98,"bRMS","f42887_e_009",NA,9,0.373719281884655,"180",0,1,0.956386203795773,1,0,1
"99","1",99,"bRMS","f42887_e_014",NA,9,0.9,"180",0,1,0.603191933822018,1,0,1
"100","1",100,"bRMS","f42887_e_025",NA,9,0.722467405584208,"180",0,1,0.640861288880842,1,0,1
"101","1",101,"bRMS","f42887_e_018",NA,10,0.722467405584208,"0",0,2,0.652084516194009,1,0,1
"102","1",102,"bRMS","f42887_e_008",NA,9,0.465553672174608,"0",0,1,1.41340649414087,1,0,1
"103","1",103,"bRMS","f42887_e_022",NA,10,0.373719281884655,"180",0,2,0.921825674018692,1,0,1
"104","1",104,"bRMS","f42887_e_014",NA,10,0.465553672174608,"180",0,2,0.727780732346218,1,0,1
"105","1",105,"bRMS","f42887_e_026",NA,10,0.3,"180",0,1,0.911180089105983,0,0,1
"106","1",106,"bRMS","f42887_e_022",NA,10,0.3,"0",0,2,3.49552656971355,1,0,1
"107","1",107,"bRMS","f42887_e_027",NA,10,0.9,"0",0,2,0.815567057177759,1,0,1
"108","1",108,"bRMS","f42887_e_008",NA,9,0.465553672174608,"180",0,1,6.96453893616126,1,0,1
"109","1",109,"bRMS","f42887_e_014",NA,9,0.722467405584208,"0",0,1,0.890814166834389,1,0,1
"110","1",110,"bRMS","f42887_e_020",NA,9,0.9,"0",0,1,0.706226730557319,1,0,1
"111","1",111,"bRMS","f42887_e_017",NA,9,0.373719281884655,"0",0,1,1.29106260608023,1,0,1
"112","1",112,"bRMS","f42887_e_004",NA,9,0.579954613479529,"180",0,1,0.698576369297371,1,0,1
"113","1",113,"bRMS","f42887_e_015",NA,9,0.3,"0",0,1,0.746204443259558,1,0,1
"114","1",114,"bRMS","f42887_e_017",NA,10,0.3,"0",0,2,1.59146820149908,1,0,1
"115","1",115,"bRMS","f42887_e_009",NA,10,0.722467405584208,"180",0,2,0.747610463757155,1,0,1
"116","1",116,"bRMS","f42887_e_011",NA,9,0.3,"180",0,2,0.891751878811192,0,0,1
"117","1",117,"bRMS","f42887_e_003",NA,9,0.579954613479529,"0",0,1,0.765199949937596,1,0,1
"118","1",118,"bRMS","f42887_e_018",NA,9,0.3,"0",0,2,1.55285273169284,0,0,1
"119","1",119,"bRMS","f42887_e_003",NA,10,0.465553672174608,"180",0,2,1.52678566909708,1,0,1
"120","1",120,"bRMS","f42887_e_022",NA,10,0.579954613479529,"0",0,2,0.692513575169869,1,0,1
"121","1",121,"bRMS","f42887_e_016",NA,10,0.579954613479529,"0",0,2,0.627692497228054,1,0,1
"122","1",122,"bRMS","f42887_e_004",NA,9,0.465553672174608,"180",0,1,2.83647165843649,1,0,1
"123","1",123,"bRMS","f42887_e_000",NA,10,0.3,"0",0,2,1.43138692690627,1,0,1
"124","1",124,"bRMS","f42887_e_015",NA,10,0.9,"0",0,2,0.608151077260118,1,0,1
"125","1",125,"bRMS","f42887_e_020",NA,9,0.373719281884655,"0",0,1,1.82587606056768,1,0,1
"126","1",126,"bRMS","f42887_e_005",NA,9,0.373719281884655,"180",0,1,3.13181858543248,1,0,1
"127","1",127,"bRMS","f42887_e_010",NA,9,0.3,"180",0,1,1.65282535530787,1,1,1
"128","1",128,"bRMS","f42887_e_014",NA,10,0.9,"0",0,2,0.775514159648083,1,0,1
"129","1",129,"bRMS","f42887_e_019",NA,9,0.9,"180",0,1,0.688313788172309,1,0,1
"130","1",130,"bRMS","f42887_e_025",NA,10,0.465553672174608,"0",0,2,2.16906270125037,1,0,1
"131","1",131,"bRMS","f42887_e_009",NA,10,0.373719281884655,"0",0,2,1.75000777185414,1,0,1
"132","1",132,"bRMS","f42887_e_012",NA,10,0.373719281884655,"180",0,2,1.19551302133186,1,0,1
"133","1",133,"bRMS","f42887_e_008",NA,10,0.373719281884655,"0",0,2,1.40024649186307,1,1,1
"134","1",134,"bRMS","f42887_e_000",NA,10,0.722467405584208,"180",0,2,0.724483034142395,1,0,1
"135","1",135,"bRMS","f42887_e_002",NA,9,0.9,"0",0,1,0.709354614253243,1,0,1
"136","1",136,"bRMS","f42887_e_007",NA,10,0.579954613479529,"180",0,2,0.980763605030006,1,0,1
"137","1",137,"bRMS","f42887_e_017",NA,10,0.9,"180",0,2,0.632949282577101,1,0,1
"138","1",138,"bRMS","f42887_e_000",NA,9,0.465553672174608,"180",0,1,1.16557061830645,1,0,1
"139","1",139,"bRMS","f42887_e_021",NA,10,0.9,"180",0,2,0.578549690922955,1,0,1
"140","1",140,"bRMS","f42887_e_028",NA,10,0.579954613479529,"0",0,2,0.62716034956793,1,0,1
"141","1",141,"bRMS","f42887_e_024",NA,10,0.465553672174608,"0",0,2,0.719204477702078,1,0,1
"142","1",142,"bRMS","f42887_e_028",NA,9,0.9,"0",0,1,0.599546726476547,1,0,1
"143","1",143,"bRMS","f42887_e_018",NA,10,0.579954613479529,"180",0,2,0.827486418304034,1,0,1
"144","1",144,"bRMS","f42887_e_002",NA,10,0.465553672174608,"180",0,2,0.702934941647982,1,0,1
"145","1",145,"bRMS","f42887_e_005",NA,10,0.9,"0",0,2,0.606002040538442,1,0,1
"146","1",146,"bRMS","f42887_e_000",NA,9,0.373719281884655,"0",0,1,1.32244127905687,1,0,1
"147","1",147,"bRMS","f42887_e_014",NA,10,0.373719281884655,"0",0,2,1.09728341532173,1,0,1
"148","1",148,"bRMS","f42887_e_003",NA,10,0.722467405584208,"0",0,2,0.642759958062015,1,0,1
"149","1",149,"bRMS","f42887_e_002",NA,9,0.3,"180",0,2,0.469509350725275,0,0,1
"150","1",150,"bRMS","f42887_e_023",NA,10,0.722467405584208,"180",0,2,0.652327108346071,1,1,1
"151","1",151,"bRMS","f42887_e_001",NA,9,0.9,"0",0,1,0.606353407201823,1,0,1
"152","1",152,"bRMS","f42887_e_028",NA,9,0.373719281884655,"180",0,1,1.89781201740516,1,0,1
"153","1",153,"bRMS","f42887_e_012",NA,10,0.373719281884655,"0",0,2,1.14578239557886,1,0,1
"154","1",154,"bRMS","f42887_e_020",NA,9,0.579954613479529,"180",0,1,1.28824698202516,1,0,1
"155","1",155,"bRMS","f42887_e_008",NA,9,0.579954613479529,"180",0,1,0.759635570178943,1,0,1
"156","1",156,"bRMS","f42887_e_007",NA,10,0.373719281884655,"180",0,2,2.53241411806448,1,0,1
"157","1",157,"bRMS","f42887_e_028",NA,9,0.722467405584208,"0",0,1,0.699244430763429,1,0,1
"158","1",158,"bRMS","f42887_e_026",NA,10,0.722467405584208,"180",0,2,0.764093045483605,1,0,1
"159","1",159,"bRMS","f42887_e_029",NA,10,0.3,"180",0,2,4.15417127523324,1,0,1
"160","1",160,"bRMS","f42887_e_018",NA,9,0.579954613479529,"0",0,1,0.655192183878171,1,0,1
"161","1",161,"bRMS","f42887_e_014",NA,10,0.373719281884655,"180",0,2,1.13533679368265,1,1,1
"162","1",162,"bRMS","f42887_e_006",NA,9,0.465553672174608,"180",0,1,0.98998708309955,1,0,1
"163","1",163,"bRMS","f42887_e_011",NA,9,0.9,"0",0,1,0.6174750133614,1,0,1
"164","1",164,"bRMS","f42887_e_010",NA,10,0.3,"0",0,2,2.16451921823864,1,0,1
"165","1",165,"bRMS","f42887_e_026",NA,10,0.373719281884655,"0",0,2,2.68046095576756,1,0,1
"166","1",166,"bRMS","f42887_e_010",NA,9,0.579954613479529,"0",0,1,0.70431257326527,1,0,1
"167","1",167,"bRMS","f42887_e_019",NA,9,0.465553672174608,"0",0,1,0.78210520184075,1,0,1
"168","1",168,"bRMS","f42887_e_027",NA,10,0.3,"180",0,2,9.16278796190454,1,1,1
"169","1",169,"bRMS","f42887_e_011",NA,9,0.3,"0",0,1,5.24147241576065,1,0,1
"170","1",170,"bRMS","f42887_e_015",NA,10,0.373719281884655,"0",0,2,1.58847871973558,1,0,1
"171","1",171,"bRMS","f42887_e_011",NA,10,0.579954613479529,"0",0,2,0.672748391390996,1,1,1
"172","1",172,"bRMS","f42887_e_021",NA,9,0.3,"180",0,1,2.47539843074992,1,0,1
"173","1",173,"bRMS","f42887_e_020",NA,10,0.465553672174608,"0",0,2,1.11496807227195,1,0,1
"174","1",174,"bRMS","f42887_e_029",NA,9,0.579954613479529,"0",0,1,0.899832996648911,1,0,1
"175","1",175,"bRMS","f42887_e_002",NA,9,0.373719281884655,"0",0,1,1.24405011289491,1,0,1
"176","1",176,"bRMS","f42887_e_016",NA,10,0.373719281884655,"0",0,2,1.49498247812517,1,0,1
"177","1",177,"bRMS","f42887_e_001",NA,10,0.3,"0",0,2,3.96764092462399,1,0,1
"178","1",178,"bRMS","f42887_e_012",NA,9,0.722467405584208,"0",0,1,0.829900210226697,1,0,1
"179","1",179,"bRMS","f42887_e_008",NA,10,0.722467405584208,"0",0,2,0.664250282599824,1,0,1
"180","1",180,"bRMS","f42887_e_015",NA,10,0.465553672174608,"180",0,2,1.50734937239758,1,0,1
"181","1",181,"bRMS","f42887_e_028",NA,9,0.579954613479529,"180",0,1,0.716287151553843,1,0,1
"182","1",182,"bRMS","f42887_e_013",NA,10,0.373719281884655,"180",0,2,1.38572268626558,1,0,1
"183","1",183,"bRMS","f42887_e_027",NA,10,0.3,"0",0,2,1.35987449234926,1,0,1
"184","1",184,"bRMS","f42887_e_024",NA,9,0.9,"0",0,1,0.645611803533029,1,0,1
"185","1",185,"bRMS","f42887_e_016",NA,10,0.465553672174608,"180",0,2,0.92024557125842,1,0,1
"186","1",186,"bRMS","f42887_e_005",NA,9,0.9,"180",0,1,0.606219981518734,1,0,1
"187","1",187,"bRMS","f42887_e_021",NA,10,0.9,"0",0,2,0.594620550691616,1,0,1
"188","1",188,"bRMS","f42887_e_017",NA,9,0.465553672174608,"180",0,1,0.686429033750755,1,0,1
"189","1",189,"bRMS","f42887_e_024",NA,10,0.9,"180",0,2,0.558609716386854,1,0,1
"190","1",190,"bRMS","f42887_e_004",NA,9,0.722467405584208,"180",0,1,0.64362285889365,1,0,1
"191","1",191,"bRMS","f42887_e_004",NA,10,0.373719281884655,"180",0,2,1.89347272801933,1,0,1
"192","1",192,"bRMS","f42887_e_000",NA,9,0.9,"180",0,1,0.558348774315164,1,1,1
"193","1",193,"bRMS","f42887_e_011",NA,9,0.9,"180",0,1,1.01237336258419,1,0,1
"194","1",194,"bRMS","f42887_e_001",NA,10,0.373719281884655,"0",0,2,1.37515251073091,1,0,1
"195","1",195,"bRMS","f42887_e_016",NA,9,0.373719281884655,"180",0,1,0.882192522187324,1,0,1
"196","1",196,"bRMS","f42887_e_021",NA,9,0.373719281884655,"0",0,1,1.62818981114106,1,0,1
"197","1",197,"bRMS","f42887_e_003",NA,10,0.722467405584208,"180",0,2,0.864361980657122,1,0,1
"198","1",198,"bRMS","f42887_e_023",NA,10,0.465553672174608,"0",0,2,1.35178839825858,1,0,1
"199","1",199,"bRMS","f42887_e_004",NA,9,0.3,"180",0,NA,NA,-1,0,1
"200","1",200,"bRMS","f42887_e_024",NA,9,0.579954613479529,"180",0,1,0.922484261409409,1,0,1
"201","1",201,"bRMS","f42887_e_027",NA,9,0.465553672174608,"0",0,1,0.817950680591821,1,0,1
"202","1",202,"bRMS","f42887_e_023",NA,10,0.722467405584208,"0",0,2,1.01405688992236,1,0,1
"203","1",203,"bRMS","f42887_e_008",NA,10,0.579954613479529,"0",0,2,0.904225469699668,1,0,1
"204","1",204,"bRMS","f42887_e_005",NA,10,0.722467405584208,"180",0,2,0.734723614103132,1,0,1
"205","1",205,"bRMS","f42887_e_008",NA,9,0.722467405584208,"180",0,1,0.771224943771813,1,0,1
"206","1",206,"bRMS","f42887_e_018",NA,9,0.373719281884655,"180",0,1,1.09783515696472,1,0,1
"207","1",207,"bRMS","f42887_e_001",NA,9,0.579954613479529,"0",0,1,0.681554319146017,1,0,1
"208","1",208,"bRMS","f42887_e_020",NA,10,0.373719281884655,"180",0,2,1.5708671514476,1,0,1
"209","1",209,"bRMS","f42887_e_016",NA,10,0.3,"180",0,2,7.52816284608889,1,1,1
"210","1",210,"bRMS","f42887_e_018",NA,10,0.373719281884655,"0",0,2,1.71077129022524,1,0,1
"211","1",211,"bRMS","f42887_e_026",NA,9,0.579954613479529,"0",0,1,1.02855346976139,1,0,1
"212","1",212,"bRMS","f42887_e_012",NA,9,0.9,"0",0,1,0.559149950449864,1,0,1
"213","1",213,"bRMS","f42887_e_023",NA,9,0.373719281884655,"0",0,1,0.836662933017578,1,0,1
"214","1",214,"bRMS","f42887_e_001",NA,9,0.722467405584208,"180",0,1,0.690249630089966,1,0,1
"215","1",215,"bRMS","f42887_e_017",NA,10,0.722467405584208,"0",0,2,0.788706196530256,1,0,1
"216","1",216,"bRMS","f42887_e_028",NA,10,0.3,"0",0,2,1.11483775674242,1,0,1
"217","1",217,"bRMS","f42887_e_027",NA,9,0.579954613479529,"180",0,1,0.738601356366416,1,0,1
"218","1",218,"bRMS","f42887_e_021",NA,10,0.722467405584208,"0",0,2,0.617739998635443,1,0,1
"219","1",219,"bRMS","f42887_e_012",NA,9,0.465553672174608,"180",0,1,0.814482234831303,1,0,1
"220","1",220,"bRMS","f42887_e_003",NA,9,0.373719281884655,"0",0,1,1.20159781109942,1,0,1
"221","1",221,"bRMS","f42887_e_000",NA,9,0.373719281884655,"180",0,1,1.06285336848123,1,0,1
"222","1",222,"bRMS","f42887_e_021",NA,9,0.722467405584208,"180",0,1,0.651003737049905,1,0,1
"223","1",223,"bRMS","f42887_e_007",NA,10,0.9,"180",0,2,0.614562185039176,1,0,1
"224","1",224,"bRMS","f42887_e_004",NA,10,0.3,"0",0,2,1.44118733887808,1,0,1
"225","1",225,"bRMS","f42887_e_013",NA,10,0.3,"180",0,1,2.9632798641469,0,0,1
"226","1",226,"bRMS","f42887_e_017",NA,9,0.579954613479529,"180",0,1,1.08214566496645,1,0,1
"227","1",227,"bRMS","f42887_e_003",NA,10,0.9,"180",0,2,0.653011342625177,1,1,1
"228","1",228,"bRMS","f42887_e_006",NA,9,0.373719281884655,"0",0,1,2.03849058497872,1,0,1
"229","1",229,"bRMS","f42887_e_006",NA,9,0.373719281884655,"180",0,1,1.81081567214824,1,0,1
"230","1",230,"bRMS","f42887_e_014",NA,10,0.579954613479529,"0",0,2,0.992807061371423,1,0,1
"231","1",231,"bRMS","f42887_e_022",NA,9,0.373719281884655,"0",0,1,5.88675976771992,1,0,1
"232","1",232,"bRMS","f42887_e_005",NA,10,0.3,"180",0,2,9.83917842703704,1,0,1
"233","1",233,"bRMS","f42887_e_017",NA,10,0.579954613479529,"0",0,2,0.96133788285988,1,0,1
"234","1",234,"bRMS","f42887_e_022",NA,10,0.465553672174608,"180",0,2,1.05431862251862,1,0,1
"235","1",235,"bRMS","f42887_e_028",NA,10,0.465553672174608,"180",0,2,0.630247179209618,1,0,1
"236","1",236,"bRMS","f42887_e_007",NA,9,0.3,"0",0,1,4.58503266709704,1,1,1
"237","1",237,"bRMS","f42887_e_026",NA,9,0.373719281884655,"180",0,1,2.4226604517371,1,0,1
"238","1",238,"bRMS","f42887_e_018",NA,10,0.9,"180",0,2,0.811460718463422,1,0,1
"239","1",239,"bRMS","f42887_e_006",NA,9,0.579954613479529,"180",0,1,0.947680255652813,1,0,1
"240","1",240,"bRMS","f42887_e_007",NA,10,0.3,"180",0,NA,NA,-1,0,1
"241","1",241,"bRMS","f42887_e_012",NA,9,0.722467405584208,"180",0,1,0.807681568139742,1,0,1
"242","1",242,"bRMS","f42887_e_017",NA,9,0.722467405584208,"180",0,1,0.723399847816836,1,0,1
"243","1",243,"bRMS","f42887_e_008",NA,9,0.9,"180",0,1,0.627307459937583,1,0,1
"244","1",244,"bRMS","f42887_e_013",NA,9,0.579954613479529,"0",0,1,0.702685818167083,1,0,1
"245","1",245,"bRMS","f42887_e_028",NA,9,0.373719281884655,"0",0,1,0.66374892548447,1,0,1
"246","1",246,"bRMS","f42887_e_011",NA,9,0.373719281884655,"180",0,1,0.689572468227198,1,0,1
"247","1",247,"bRMS","f42887_e_024",NA,10,0.722467405584208,"180",0,2,0.810980821421253,1,0,1
"248","1",248,"bRMS","f42887_e_025",NA,10,0.373719281884655,"180",0,2,2.12671589640377,1,0,1
"249","1",249,"bRMS","f42887_e_006",NA,10,0.579954613479529,"0",0,2,0.757323791365707,1,0,1
"250","1",250,"bRMS","f42887_e_025",NA,9,0.722467405584208,"0",0,1,0.620772400550777,1,0,1
"251","1",251,"bRMS","f42887_e_009",NA,10,0.465553672174608,"0",0,2,1.01018132476929,1,0,1
"252","1",252,"bRMS","f42887_e_005",NA,9,0.3,"0",0,1,0.831693526066374,1,0,1
"253","1",253,"bRMS","f42887_e_014",NA,10,0.465553672174608,"0",0,2,0.723401402892705,1,0,1
"254","1",254,"bRMS","f42887_e_012",NA,9,0.3,"0",0,1,0.737958095201975,1,0,1
"255","1",255,"bRMS","f42887_e_016",NA,10,0.3,"0",0,2,1.20272858280987,1,0,1
"256","1",256,"bRMS","f42887_e_018",NA,9,0.3,"180",0,1,0.847114133195646,1,0,1
"257","1",257,"bRMS","f42887_e_023",NA,9,0.579954613479529,"180",0,1,1.15564984330558,1,0,1
"258","1",258,"bRMS","f42887_e_001",NA,9,0.722467405584208,"0",0,1,0.64379159674354,1,0,1
"259","1",259,"bRMS","f42887_e_020",NA,9,0.722467405584208,"0",0,1,0.821526196650666,1,0,1
"260","1",260,"bRMS","f42887_e_013",NA,9,0.9,"0",0,1,0.633318147054524,1,0,1
"261","1",261,"bRMS","f42887_e_009",NA,9,0.465553672174608,"180",0,1,0.812711934146137,1,0,1
"262","1",262,"bRMS","f42887_e_011",NA,10,0.373719281884655,"0",0,2,1.57569487890578,1,0,1
"263","1",263,"bRMS","f42887_e_006",NA,10,0.722467405584208,"180",0,2,0.643757074012683,1,0,1
"264","1",264,"bRMS","f42887_e_013",NA,10,0.579954613479529,"180",0,2,0.663189327511645,1,0,1
"265","1",265,"bRMS","f42887_e_026",NA,10,0.3,"0",0,2,1.27343245779957,1,0,1
"266","1",266,"bRMS","f42887_e_015",NA,9,0.579954613479529,"0",0,1,1.37067450839641,1,0,1
"267","1",267,"bRMS","f42887_e_019",NA,10,0.722467405584208,"180",0,2,0.689527059954344,1,0,1
"268","1",268,"bRMS","f42887_e_021",NA,10,0.3,"0",0,2,0.899014092625293,1,0,1
"269","1",269,"bRMS","f42887_e_002",NA,9,0.373719281884655,"180",0,1,1.64445717008675,1,0,1
"270","1",270,"bRMS","f42887_e_020",NA,9,0.722467405584208,"180",0,1,0.614771124843173,1,0,1
"271","1",271,"bRMS","f42887_e_014",NA,10,0.722467405584208,"180",0,2,0.784788022241628,1,0,1
"272","1",272,"bRMS","f42887_e_012",NA,9,0.9,"180",0,1,0.645639651325837,1,0,1
"273","1",273,"bRMS","f42887_e_029",NA,9,0.373719281884655,"180",0,1,1.21698118282256,1,0,1
"274","1",274,"bRMS","f42887_e_015",NA,9,0.465553672174608,"0",0,1,0.748530758861307,1,0,1
"275","1",275,"bRMS","f42887_e_025",NA,9,0.579954613479529,"180",0,1,0.522879705358719,1,0,1
"276","1",276,"bRMS","f42887_e_023",NA,10,0.465553672174608,"180",0,1,1.03940559281727,0,0,1
"277","1",277,"bRMS","f42887_e_002",NA,9,0.579954613479529,"180",0,1,0.658204369779924,1,0,1
"278","1",278,"bRMS","f42887_e_006",NA,10,0.9,"0",0,2,0.766463501508042,1,0,1
"279","1",279,"bRMS","f42887_e_018",NA,9,0.465553672174608,"0",0,1,0.753116683601547,1,0,1
"280","1",280,"bRMS","f42887_e_024",NA,10,0.373719281884655,"0",0,2,1.5418372681379,1,0,1
"281","1",281,"bRMS","f42887_e_025",NA,9,0.3,"180",0,1,1.97128229504415,1,0,1
"282","1",282,"bRMS","f42887_e_029",NA,10,0.722467405584208,"180",0,2,0.872132082917233,1,0,1
"283","1",283,"bRMS","f42887_e_001",NA,9,0.465553672174608,"180",0,1,1.27448904039557,1,0,1
"284","1",284,"bRMS","f42887_e_007",NA,10,0.373719281884655,"0",0,2,0.869189253489822,1,0,1
"285","1",285,"bRMS","f42887_e_026",NA,10,0.465553672174608,"180",0,2,1.06126625597062,1,1,1
"286","1",286,"bRMS","f42887_e_011",NA,9,0.465553672174608,"0",0,1,0.742060701730225,1,0,1
"287","1",287,"bRMS","f42887_e_005",NA,9,0.579954613479529,"0",0,1,0.668243330703262,1,0,1
"288","1",288,"bRMS","f42887_e_009",NA,10,0.3,"0",0,2,1.70235458657407,1,1,1
"289","1",289,"bRMS","f42887_e_013",NA,10,0.373719281884655,"0",0,2,1.13575417659195,1,0,1
"290","1",290,"bRMS","f42887_e_015",NA,10,0.579954613479529,"180",0,2,1.17452942211639,1,0,1
"291","1",291,"bRMS","f42887_e_003",NA,10,0.465553672174608,"0",0,2,0.963369125620375,1,0,1
"292","1",292,"bRMS","f42887_e_025",NA,9,0.579954613479529,"0",0,1,0.674903729366633,1,0,1
"293","1",293,"bRMS","f42887_e_024",NA,10,0.3,"0",0,2,1.115911463472,1,0,1
"294","1",294,"bRMS","f42887_e_029",NA,10,0.3,"0",0,2,1.27770355382927,1,0,1
"295","1",295,"bRMS","f42887_e_017",NA,10,0.3,"180",0,2,4.64782702390585,1,0,1
"296","1",296,"bRMS","f42887_e_026",NA,10,0.465553672174608,"0",0,2,1.46555758675458,1,0,1
"297","1",297,"bRMS","f42887_e_026",NA,10,0.9,"0",0,2,0.70038150372784,1,0,1
"298","1",298,"bRMS","f42887_e_022",NA,9,0.3,"180",0,2,0.821066123664423,0,0,1
"299","1",299,"bRMS","f42887_e_027",NA,9,0.465553672174608,"180",0,1,0.767994424933931,1,0,1
"300","1",300,"bRMS","f42887_e_022",NA,10,0.722467405584208,"180",0,2,0.764292550082246,1,0,1
"301","1",301,"bRMS","f42887_e_019",NA,10,0.373719281884655,"0",0,2,1.21744584010048,1,0,1
"302","1",302,"bRMS","f42887_e_024",NA,9,0.465553672174608,"180",0,1,0.732988377234506,1,0,1
"303","1",303,"bRMS","f42887_e_021",NA,9,0.579954613479529,"180",0,1,1.54129375651246,1,0,1
"304","1",304,"bRMS","f42887_e_018",NA,10,0.722467405584208,"180",0,2,0.707861739465443,1,0,1
"305","1",305,"bRMS","f42887_e_007",NA,9,0.9,"0",0,1,0.596007162885144,1,0,1
"306","1",306,"bRMS","f42887_e_009",NA,10,0.9,"0",0,2,0.608952023323582,1,0,1
"307","1",307,"bRMS","f42887_e_027",NA,9,0.722467405584208,"0",0,1,0.585483017659499,1,0,1
"308","1",308,"bRMS","f42887_e_001",NA,9,0.9,"180",0,1,0.664332309772362,1,0,1
"309","1",309,"bRMS","f42887_e_009",NA,9,0.579954613479529,"0",0,1,0.648026154818581,1,0,1
"310","1",310,"bRMS","f42887_e_021",NA,9,0.579954613479529,"0",0,1,0.537843517062356,1,0,1
"311","1",311,"bRMS","f42887_e_001",NA,9,0.3,"180",0,1,0.481288132807094,1,0,1
"312","1",312,"bRMS","f42887_e_019",NA,10,0.579954613479529,"180",0,2,0.810043109446269,1,0,1
"313","1",313,"bRMS","f42887_e_017",NA,10,0.9,"0",0,2,0.598218483666642,1,0,1
"314","1",314,"bRMS","f42887_e_010",NA,9,0.9,"0",0,1,0.578918411791165,1,0,1
"315","1",315,"bRMS","f42887_e_019",NA,10,0.373719281884655,"180",0,2,1.68123017824109,1,0,1
"316","1",316,"bRMS","f42887_e_029",NA,9,0.722467405584208,"0",0,1,0.689904632869002,1,0,1
"317","1",317,"bRMS","f42887_e_015",NA,9,0.9,"180",0,1,0.652712145634723,1,0,1
"318","1",318,"bRMS","f42887_e_029",NA,10,0.465553672174608,"0",0,2,0.614753938045396,1,0,1
"319","1",319,"bRMS","f42887_e_013",NA,9,0.465553672174608,"0",0,1,0.658256931412325,1,0,1
"320","1",320,"bRMS","f42887_e_017",NA,9,0.465553672174608,"0",0,1,0.724358316894723,1,0,1
"321","1",321,"bRMS","f42887_e_019",NA,10,0.3,"180",0,2,1.29979996679504,1,0,1
"322","1",322,"bRMS","f42887_e_023",NA,9,0.373719281884655,"180",0,1,1.67718316255923,1,0,1
"323","1",323,"bRMS","f42887_e_014",NA,9,0.3,"0",0,1,0.766325969949321,1,0,1
"324","1",324,"bRMS","f42887_e_012",NA,9,0.3,"180",0,1,1.04492611937894,1,0,1
"325","1",325,"bRMS","f42887_e_000",NA,9,0.3,"180",0,1,1.20829513967692,1,0,1
"326","1",326,"bRMS","f42887_e_004",NA,10,0.9,"180",0,2,0.645170639829303,1,0,1
"327","1",327,"bRMS","f42887_e_010",NA,9,0.9,"180",0,1,0.671351620418136,1,0,1
"328","1",328,"bRMS","f42887_e_024",NA,9,0.3,"180",0,1,2.9052667498654,1,0,1
"329","1",329,"bRMS","f42887_e_025",NA,10,0.3,"0",0,2,4.12955159286139,1,0,1
"330","1",330,"bRMS","f42887_e_026",NA,10,0.9,"180",0,2,0.69793038993339,1,0,1
"331","1",331,"bRMS","f42887_e_008",NA,9,0.3,"0",0,1,0.745610403499086,1,0,1
"332","1",332,"bRMS","f42887_e_029",NA,10,0.9,"180",0,2,0.6707641119865,1,0,1
"333","1",333,"bRMS","f42887_e_006",NA,10,0.9,"180",0,2,0.59958664120677,1,0,1
"334","1",334,"bRMS","f42887_e_027",NA,9,0.373719281884655,"0",0,1,1.00449859168475,1,0,1
"335","1",335,"bRMS","f42887_e_029",NA,10,0.9,"0",0,2,0.625798412338554,1,0,1
"336","1",336,"bRMS","f42887_e_000",NA,10,0.465553672174608,"0",0,2,0.71052216674434,1,0,1
"337","1",337,"bRMS","f42887_e_013",NA,9,0.3,"0",0,1,0.948923776888478,1,0,1
"338","1",338,"bRMS","f42887_e_016",NA,9,0.722467405584208,"0",0,1,0.691488324206148,1,0,1
"339","1",339,"bRMS","f42887_e_005",NA,9,0.579954613479529,"180",0,1,0.852902611579339,1,0,1
"340","1",340,"bRMS","f42887_e_007",NA,9,0.465553672174608,"180",0,1,1.0485818774614,1,0,1
"341","1",341,"bRMS","f42887_e_013",NA,10,0.722467405584208,"180",0,2,0.660518014687113,1,0,1
"342","1",342,"bRMS","f42887_e_016",NA,10,0.9,"180",0,2,0.741267300983964,1,0,1
"343","1",343,"bRMS","f42887_e_010",NA,9,0.579954613479529,"180",0,1,0.626297051256188,1,0,1
"344","1",344,"bRMS","f42887_e_010",NA,10,0.465553672174608,"180",0,2,0.967421658639068,1,0,1
"345","1",345,"bRMS","f42887_e_009",NA,9,0.722467405584208,"0",0,1,0.596232649182639,1,0,1
"346","1",346,"bRMS","f42887_e_020",NA,9,0.465553672174608,"180",0,1,0.89995592874584,1,0,1
"347","1",347,"bRMS","f42887_e_025",NA,10,0.373719281884655,"0",0,2,0.667889083955743,1,0,1
"348","1",348,"bRMS","f42887_e_024",NA,9,0.579954613479529,"0",0,1,0.578036060587692,1,0,1
"349","1",349,"bRMS","f42887_e_027",NA,9,0.9,"180",0,1,0.670326594005019,1,0,1
"350","1",350,"bRMS","f42887_e_026",NA,10,0.722467405584208,"0",0,2,0.69551784207215,1,0,1
"351","1",351,"bRMS","f42887_e_001",NA,9,0.579954613479529,"180",0,1,0.613721055298811,1,0,1
"352","1",352,"bRMS","f42887_e_016",NA,9,0.465553672174608,"0",0,1,0.751969739081687,1,0,1
"353","1",353,"bRMS","f42887_e_003",NA,10,0.3,"180",0,2,1.21374319960887,1,0,1
"354","1",354,"bRMS","f42887_e_026",NA,10,0.579954613479529,"180",0,2,0.911258154015741,1,0,1
"355","1",355,"bRMS","f42887_e_029",NA,10,0.465553672174608,"180",0,2,0.904033573084234,1,0,1
"356","1",356,"bRMS","f42887_e_023",NA,9,0.9,"180",0,1,0.61750020562431,1,0,1
"357","1",357,"bRMS","f42887_e_024",NA,9,0.722467405584208,"0",0,1,0.622292022679176,1,0,1
"358","1",358,"bRMS","f42887_e_010",NA,9,0.373719281884655,"0",0,1,0.81104209149089,1,0,1
"359","1",359,"bRMS","f42887_e_016",NA,10,0.722467405584208,"180",0,2,0.613825556534721,1,0,1
"360","1",360,"bRMS","f42887_e_004",NA,10,0.9,"0",0,2,0.521954042047582,1,0,1
"361","2",1,"bRMS","f42887_e_008",NA,9,0.9,"180",0,1,0.654952125518321,1,0,0
"362","2",2,"bRMS","f42887_e_005",NA,10,0.579954613479529,"180",0,2,0.697695929855399,1,0,0
"363","2",3,"bRMS","f42887_e_024",NA,10,0.465553672174608,"180",0,2,0.809079628845211,1,0,0
"364","2",4,"bRMS","f42887_e_009",NA,10,0.9,"0",0,2,0.629219940414259,1,0,0
"365","2",5,"bRMS","f42887_e_014",NA,10,0.373719281884655,"180",0,2,3.77726366796014,1,0,0
"366","2",6,"bRMS","f42887_e_001",NA,9,0.465553672174608,"0",0,1,2.0723698688962,1,0,0
"367","2",7,"bRMS","f42887_e_004",NA,9,0.465553672174608,"180",0,1,1.0000451459764,1,0,0
"368","2",8,"bRMS","f42887_e_027",NA,9,0.465553672174608,"0",0,1,1.71730515121999,1,0,0
"369","2",9,"bRMS","f42887_e_001",NA,9,0.579954613479529,"180",0,1,1.04608843027381,1,0,0
"370","2",10,"bRMS","f42887_e_020",NA,10,0.722467405584208,"180",0,2,0.713519780583738,1,0,0
"371","2",11,"bRMS","f42887_e_020",NA,9,0.465553672174608,"180",0,1,0.690382398470319,1,0,0
"372","2",12,"bRMS","f42887_e_008",NA,10,0.373719281884655,"180",0,2,3.69195877456878,1,0,0
"373","2",13,"bRMS","f42887_e_009",NA,9,0.9,"180",0,1,0.726773709564441,1,0,0
"374","2",14,"bRMS","f42887_e_022",NA,9,0.579954613479529,"0",0,1,0.782355015804569,1,0,0
"375","2",15,"bRMS","f42887_e_016",NA,9,0.465553672174608,"180",0,1,0.772230502814637,1,0,0
"376","2",16,"bRMS","f42887_e_009",NA,10,0.465553672174608,"0",0,1,0.841749016484755,0,0,0
"377","2",17,"bRMS","f42887_e_003",NA,10,0.465553672174608,"0",0,2,0.982029195880386,1,0,0
"378","2",18,"bRMS","f42887_e_001",NA,10,0.579954613479529,"0",0,2,0.92334830836262,1,0,0
"379","2",19,"bRMS","f42887_e_025",NA,9,0.465553672174608,"0",0,1,0.923453431629241,1,0,0
"380","2",20,"bRMS","f42887_e_004",NA,10,0.373719281884655,"0",0,2,2.85178177987655,1,0,0
"381","2",21,"bRMS","f42887_e_001",NA,9,0.722467405584208,"0",0,1,0.742503011555527,1,0,0
"382","2",22,"bRMS","f42887_e_023",NA,10,0.722467405584208,"0",0,2,0.814079599662364,1,0,0
"383","2",23,"bRMS","f42887_e_013",NA,9,0.3,"0",0,1,4.93795888730892,1,0,0
"384","2",24,"bRMS","f42887_e_028",NA,9,0.465553672174608,"180",0,1,1.22438837556729,1,0,0
"385","2",25,"bRMS","f42887_e_025",NA,10,0.579954613479529,"180",0,2,1.02920339438424,1,0,0
"386","2",26,"bRMS","f42887_e_006",NA,10,0.373719281884655,"0",0,2,1.70459394442514,1,0,0
"387","2",27,"bRMS","f42887_e_027",NA,10,0.465553672174608,"180",0,2,0.945476133902048,1,0,0
"388","2",28,"bRMS","f42887_e_013",NA,9,0.373719281884655,"0",0,1,0.822932573837534,1,0,0
"389","2",29,"bRMS","f42887_e_015",NA,9,0.9,"0",0,1,0.659053799001413,1,0,0
"390","2",30,"bRMS","f42887_e_022",NA,10,0.722467405584208,"0",0,2,0.653425933291146,1,0,0
"391","2",31,"bRMS","f42887_e_005",NA,9,0.373719281884655,"180",0,1,3.77532635190801,1,0,0
"392","2",32,"bRMS","f42887_e_018",NA,9,0.465553672174608,"180",0,1,0.838267197055757,1,0,0
"393","2",33,"bRMS","f42887_e_018",NA,10,0.579954613479529,"0",0,2,0.801715090903599,1,0,0
"394","2",34,"bRMS","f42887_e_008",NA,10,0.3,"180",0,2,1.19715367419121,1,0,0
"395","2",35,"bRMS","f42887_e_006",NA,10,0.373719281884655,"180",0,2,3.65858478750488,1,0,0
"396","2",36,"bRMS","f42887_e_011",NA,9,0.722467405584208,"0",0,1,0.706809619425258,1,0,0
"397","2",37,"bRMS","f42887_e_025",NA,10,0.373719281884655,"0",0,2,0.764362119633006,1,1,0
"398","2",38,"bRMS","f42887_e_007",NA,10,0.373719281884655,"0",0,NA,NA,-1,0,0
"399","2",39,"bRMS","f42887_e_027",NA,9,0.373719281884655,"180",0,1,9.02098356359602,1,0,0
"400","2",40,"bRMS","f42887_e_026",NA,10,0.722467405584208,"180",0,2,0.839839691832822,1,0,0
"401","2",41,"bRMS","f42887_e_012",NA,10,0.373719281884655,"180",0,2,2.52932455773589,1,0,0
"402","2",42,"bRMS","f42887_e_022",NA,10,0.465553672174608,"180",0,2,3.6486441075067,1,0,0
"403","2",43,"bRMS","f42887_e_002",NA,10,0.465553672174608,"0",0,2,0.994966177204333,1,0,0
"404","2",44,"bRMS","f42887_e_012",NA,10,0.579954613479529,"180",0,2,0.935070485607866,1,0,0
"405","2",45,"bRMS","f42887_e_010",NA,10,0.722467405584208,"180",0,2,0.749246762397888,1,0,0
"406","2",46,"bRMS","f42887_e_004",NA,9,0.722467405584208,"0",0,1,0.682179385305062,1,0,0
"407","2",47,"bRMS","f42887_e_021",NA,9,0.373719281884655,"180",0,1,3.05140057639801,1,0,0
"408","2",48,"bRMS","f42887_e_018",NA,10,0.9,"180",0,2,0.733687274914701,1,0,0
"409","2",49,"bRMS","f42887_e_017",NA,10,0.465553672174608,"180",0,2,1.81037936295797,1,0,0
"410","2",50,"bRMS","f42887_e_000",NA,9,0.722467405584208,"180",0,1,0.798648477275492,1,0,0
"411","2",51,"bRMS","f42887_e_027",NA,10,0.722467405584208,"0",0,2,0.795619020393133,1,0,0
"412","2",52,"bRMS","f42887_e_020",NA,10,0.373719281884655,"180",0,2,2.44683791562238,1,0,0
"413","2",53,"bRMS","f42887_e_017",NA,9,0.9,"180",0,1,0.751983161815588,1,0,0
"414","2",54,"bRMS","f42887_e_023",NA,9,0.465553672174608,"0",0,1,1.09387628530385,1,0,0
"415","2",55,"bRMS","f42887_e_003",NA,10,0.373719281884655,"0",0,2,1.66333275136458,1,0,0
"416","2",56,"bRMS","f42887_e_007",NA,10,0.465553672174608,"0",0,2,1.12091691295609,1,0,0
"417","2",57,"bRMS","f42887_e_000",NA,9,0.579954613479529,"0",0,1,0.78422295260134,1,0,0
"418","2",58,"bRMS","f42887_e_027",NA,10,0.373719281884655,"0",0,2,2.49392227618955,1,0,0
"419","2",59,"bRMS","f42887_e_026",NA,9,0.3,"0",0,2,6.33454418504334,0,0,0
"420","2",60,"bRMS","f42887_e_029",NA,9,0.465553672174608,"180",0,1,2.14304225037085,1,0,0
"421","2",61,"bRMS","f42887_e_004",NA,9,0.3,"0",0,1,8.80329973807238,1,0,0
"422","2",62,"bRMS","f42887_e_019",NA,10,0.9,"0",0,2,0.879783111877259,1,0,0
"423","2",63,"bRMS","f42887_e_022",NA,10,0.722467405584208,"180",0,2,1.07123092983966,1,0,0
"424","2",64,"bRMS","f42887_e_002",NA,10,0.3,"180",0,1,4.41527792056149,0,0,0
"425","2",65,"bRMS","f42887_e_026",NA,10,0.3,"180",0,2,1.90766223753781,1,0,0
"426","2",66,"bRMS","f42887_e_013",NA,10,0.465553672174608,"180",0,2,1.45853458959027,1,0,0
"427","2",67,"bRMS","f42887_e_020",NA,9,0.579954613479529,"180",0,1,1.15607473625823,1,0,0
"428","2",68,"bRMS","f42887_e_019",NA,9,0.465553672174608,"180",0,1,0.994822799020767,1,0,0
"429","2",69,"bRMS","f42887_e_021",NA,10,0.579954613479529,"180",0,2,0.855680337401282,1,0,0
"430","2",70,"bRMS","f42887_e_016",NA,10,0.9,"0",0,2,0.71239017199332,1,0,0
"431","2",71,"bRMS","f42887_e_011",NA,10,0.3,"180",0,2,8.81790873600403,1,0,0
"432","2",72,"bRMS","f42887_e_019",NA,9,0.3,"180",0,1,9.50163357372003,1,0,0
"433","2",73,"bRMS","f42887_e_021",NA,9,0.373719281884655,"0",0,1,2.790385415321,1,0,0
"434","2",74,"bRMS","f42887_e_016",NA,10,0.9,"180",0,2,0.737532506433126,1,0,0
"435","2",75,"bRMS","f42887_e_017",NA,9,0.9,"0",0,1,0.694096235522011,1,0,0
"436","2",76,"bRMS","f42887_e_001",NA,9,0.373719281884655,"0",0,1,1.01480710517353,1,0,0
"437","2",77,"bRMS","f42887_e_010",NA,10,0.579954613479529,"0",0,2,0.667365091152533,1,0,0
"438","2",78,"bRMS","f42887_e_028",NA,10,0.579954613479529,"0",0,2,0.701091908984381,1,0,0
"439","2",79,"bRMS","f42887_e_028",NA,10,0.579954613479529,"180",0,2,0.788496306682646,1,0,0
"440","2",80,"bRMS","f42887_e_028",NA,10,0.373719281884655,"0",0,2,0.840887276644935,1,0,0
"441","2",81,"bRMS","f42887_e_029",NA,9,0.373719281884655,"0",0,1,3.03008232441607,1,0,0
"442","2",82,"bRMS","f42887_e_024",NA,9,0.579954613479529,"180",0,1,0.841674994775531,1,0,0
"443","2",83,"bRMS","f42887_e_011",NA,10,0.579954613479529,"180",0,2,1.1324549689798,1,0,0
"444","2",84,"bRMS","f42887_e_002",NA,9,0.3,"0",0,1,3.62716443843965,1,1,0
"445","2",85,"bRMS","f42887_e_016",NA,9,0.465553672174608,"0",0,1,0.957578994217329,1,0,0
"446","2",86,"bRMS","f42887_e_012",NA,9,0.9,"0",0,1,0.740973125914024,1,0,0
"447","2",87,"bRMS","f42887_e_013",NA,10,0.722467405584208,"0",0,2,0.748468601414061,1,0,0
"448","2",88,"bRMS","f42887_e_016",NA,9,0.579954613479529,"180",0,1,0.737930149469321,1,0,0
"449","2",89,"bRMS","f42887_e_006",NA,9,0.9,"180",0,1,0.672183406088152,1,0,0
"450","2",90,"bRMS","f42887_e_026",NA,9,0.465553672174608,"0",0,1,0.691484326673162,1,0,0
"451","2",91,"bRMS","f42887_e_007",NA,9,0.373719281884655,"180",0,1,0.711757566301458,1,0,0
"452","2",92,"bRMS","f42887_e_028",NA,9,0.9,"180",0,1,0.608496350225323,1,0,0
"453","2",93,"bRMS","f42887_e_023",NA,10,0.3,"0",0,2,1.86927607250618,1,0,0
"454","2",94,"bRMS","f42887_e_002",NA,9,0.373719281884655,"180",0,1,0.926865583567633,1,0,0
"455","2",95,"bRMS","f42887_e_021",NA,10,0.3,"180",0,2,2.88756036749328,1,0,0
"456","2",96,"bRMS","f42887_e_015",NA,10,0.373719281884655,"0",0,2,1.56916407579592,1,0,0
"457","2",97,"bRMS","f42887_e_021",NA,10,0.465553672174608,"180",0,2,0.77599472439033,1,0,0
"458","2",98,"bRMS","f42887_e_000",NA,9,0.373719281884655,"0",0,1,3.38159029069357,1,0,0
"459","2",99,"bRMS","f42887_e_027",NA,9,0.9,"0",0,1,0.68302190373106,1,0,0
"460","2",100,"bRMS","f42887_e_015",NA,9,0.579954613479529,"180",0,1,0.716530100391537,1,1,0
"461","2",101,"bRMS","f42887_e_012",NA,10,0.465553672174608,"180",0,2,2.48456690473176,1,0,0
"462","2",102,"bRMS","f42887_e_024",NA,9,0.9,"180",0,1,0.734865401935167,1,0,0
"463","2",103,"bRMS","f42887_e_025",NA,10,0.3,"180",0,2,3.21549053081253,1,0,0
"464","2",104,"bRMS","f42887_e_010",NA,9,0.9,"180",0,1,0.683828056118728,1,0,0
"465","2",105,"bRMS","f42887_e_011",NA,10,0.373719281884655,"0",0,2,1.88458052721398,1,0,0
"466","2",106,"bRMS","f42887_e_003",NA,9,0.373719281884655,"180",0,1,1.53415771708205,1,0,0
"467","2",107,"bRMS","f42887_e_001",NA,10,0.373719281884655,"180",0,2,1.87027412150564,1,0,0
"468","2",108,"bRMS","f42887_e_029",NA,9,0.465553672174608,"0",0,1,0.977765460498631,1,0,0
"469","2",109,"bRMS","f42887_e_003",NA,9,0.3,"0",0,1,4.071847984751,1,0,0
"470","2",110,"bRMS","f42887_e_013",NA,10,0.579954613479529,"0",0,2,0.857589662051396,1,0,0
"471","2",111,"bRMS","f42887_e_023",NA,9,0.373719281884655,"0",0,1,1.12394995968498,1,0,0
"472","2",112,"bRMS","f42887_e_012",NA,9,0.3,"180",0,1,4.74844589727581,1,0,0
"473","2",113,"bRMS","f42887_e_024",NA,10,0.465553672174608,"0",0,2,0.730836817114323,1,0,0
"474","2",114,"bRMS","f42887_e_014",NA,10,0.722467405584208,"180",0,2,0.713121453960412,1,0,0
"475","2",115,"bRMS","f42887_e_017",NA,10,0.579954613479529,"0",0,2,0.825761260544823,1,0,0
"476","2",116,"bRMS","f42887_e_028",NA,10,0.465553672174608,"0",0,2,0.764514206250169,1,0,0
"477","2",117,"bRMS","f42887_e_005",NA,9,0.9,"180",0,1,0.618133563351876,1,0,0
"478","2",118,"bRMS","f42887_e_013",NA,9,0.722467405584208,"180",0,1,0.734131716179036,1,0,0
"479","2",119,"bRMS","f42887_e_021",NA,9,0.722467405584208,"0",0,1,0.660909006941438,1,0,0
"480","2",120,"bRMS","f42887_e_009",NA,10,0.722467405584208,"180",0,2,0.607797893566385,1,0,0
"481","2",121,"bRMS","f42887_e_000",NA,10,0.373719281884655,"180",0,2,1.69974521151744,1,0,0
"482","2",122,"bRMS","f42887_e_026",NA,9,0.373719281884655,"0",0,1,1.5645846823827,1,0,0
"483","2",123,"bRMS","f42887_e_010",NA,10,0.373719281884655,"180",0,2,2.43401443220318,1,0,0
"484","2",124,"bRMS","f42887_e_014",NA,10,0.3,"0",0,2,2.10966250314414,1,0,0
"485","2",125,"bRMS","f42887_e_020",NA,9,0.3,"0",0,1,5.94103420937427,1,0,0
"486","2",126,"bRMS","f42887_e_000",NA,10,0.465553672174608,"0",0,2,1.76418421871858,1,0,0
"487","2",127,"bRMS","f42887_e_010",NA,10,0.373719281884655,"0",0,2,2.28926935869094,1,0,0
"488","2",128,"bRMS","f42887_e_023",NA,9,0.373719281884655,"180",0,1,4.92987154915863,1,0,0
"489","2",129,"bRMS","f42887_e_020",NA,10,0.722467405584208,"0",0,2,0.721641641464885,1,0,0
"490","2",130,"bRMS","f42887_e_007",NA,9,0.9,"180",0,1,0.688554893698893,1,0,0
"491","2",131,"bRMS","f42887_e_005",NA,10,0.579954613479529,"0",0,2,0.642519277671454,1,0,0
"492","2",132,"bRMS","f42887_e_026",NA,9,0.579954613479529,"0",0,1,0.637278976148082,1,0,0
"493","2",133,"bRMS","f42887_e_026",NA,10,0.9,"0",0,2,0.600284939639096,1,0,0
"494","2",134,"bRMS","f42887_e_007",NA,10,0.465553672174608,"180",0,2,1.03552043184936,1,0,0
"495","2",135,"bRMS","f42887_e_014",NA,10,0.465553672174608,"180",0,2,0.97556969049765,1,0,0
"496","2",136,"bRMS","f42887_e_005",NA,10,0.722467405584208,"0",0,2,0.72330503712692,1,0,0
"497","2",137,"bRMS","f42887_e_001",NA,9,0.9,"180",0,1,0.739847560525959,1,0,0
"498","2",138,"bRMS","f42887_e_029",NA,9,0.722467405584208,"0",0,1,0.777915867634874,1,0,0
"499","2",139,"bRMS","f42887_e_029",NA,10,0.3,"180",0,2,4.31084426008056,1,0,0
"500","2",140,"bRMS","f42887_e_015",NA,9,0.9,"180",0,1,0.687668165495779,1,0,0
"501","2",141,"bRMS","f42887_e_003",NA,9,0.9,"0",0,1,0.625227122387514,1,0,0
"502","2",142,"bRMS","f42887_e_013",NA,9,0.3,"180",0,1,7.02854715150897,1,0,0
"503","2",143,"bRMS","f42887_e_015",NA,10,0.373719281884655,"180",0,2,2.22436536041459,1,0,0
"504","2",144,"bRMS","f42887_e_007",NA,9,0.579954613479529,"0",0,1,0.753955538293667,1,0,0
"505","2",145,"bRMS","f42887_e_017",NA,9,0.722467405584208,"0",0,1,0.68068648773442,1,0,0
"506","2",146,"bRMS","f42887_e_024",NA,9,0.579954613479529,"0",0,1,0.666198759943654,1,0,0
"507","2",147,"bRMS","f42887_e_007",NA,9,0.3,"0",0,1,3.39581278374862,1,0,0
"508","2",148,"bRMS","f42887_e_029",NA,9,0.9,"180",0,1,0.631248695048271,1,0,0
"509","2",149,"bRMS","f42887_e_005",NA,9,0.9,"0",0,1,0.60950281942678,1,0,0
"510","2",150,"bRMS","f42887_e_028",NA,10,0.9,"0",0,2,0.638125249543009,1,0,0
"511","2",151,"bRMS","f42887_e_019",NA,9,0.373719281884655,"0",0,1,0.704823162910543,1,0,0
"512","2",152,"bRMS","f42887_e_000",NA,10,0.465553672174608,"180",0,2,1.24987276559114,1,0,0
"513","2",153,"bRMS","f42887_e_013",NA,9,0.9,"0",0,1,0.603133819577124,1,0,0
"514","2",154,"bRMS","f42887_e_015",NA,10,0.579954613479529,"0",0,2,0.670618291347637,1,0,0
"515","2",155,"bRMS","f42887_e_027",NA,10,0.3,"0",0,2,2.78347131227747,1,0,0
"516","2",156,"bRMS","f42887_e_025",NA,9,0.9,"180",0,1,0.662932163295409,1,0,0
"517","2",157,"bRMS","f42887_e_012",NA,10,0.465553672174608,"0",0,2,0.807860781565978,1,0,0
"518","2",158,"bRMS","f42887_e_010",NA,9,0.3,"180",0,1,4.31699948510504,1,0,0
"519","2",159,"bRMS","f42887_e_021",NA,10,0.9,"0",0,2,0.699476494057308,1,0,0
"520","2",160,"bRMS","f42887_e_024",NA,10,0.722467405584208,"180",0,2,0.595806004257611,1,0,0
"521","2",161,"bRMS","f42887_e_025",NA,10,0.373719281884655,"180",0,2,2.15301558700412,1,0,0
"522","2",162,"bRMS","f42887_e_019",NA,9,0.465553672174608,"0",0,1,1.06451983563238,1,0,0
"523","2",163,"bRMS","f42887_e_021",NA,10,0.722467405584208,"180",0,2,0.712622189617832,1,0,0
"524","2",164,"bRMS","f42887_e_004",NA,9,0.3,"180",0,1,2.4980326353234,1,1,0
"525","2",165,"bRMS","f42887_e_019",NA,9,0.579954613479529,"180",0,1,0.7943580173378,1,0,0
"526","2",166,"bRMS","f42887_e_008",NA,9,0.465553672174608,"180",0,1,0.847788317034428,1,0,0
"527","2",167,"bRMS","f42887_e_018",NA,9,0.3,"180",0,1,1.58471462816487,1,0,0
"528","2",168,"bRMS","f42887_e_005",NA,9,0.465553672174608,"0",0,1,0.741351320861213,1,0,0
"529","2",169,"bRMS","f42887_e_014",NA,10,0.3,"180",0,2,1.86216003601476,1,0,0
"530","2",170,"bRMS","f42887_e_006",NA,10,0.3,"180",0,2,1.8802661190748,1,0,0
"531","2",171,"bRMS","f42887_e_026",NA,10,0.579954613479529,"180",0,2,0.843201148230946,1,1,0
"532","2",172,"bRMS","f42887_e_029",NA,9,0.579954613479529,"180",0,1,0.831974418804748,1,0,0
"533","2",173,"bRMS","f42887_e_018",NA,10,0.722467405584208,"0",0,2,0.795435064293997,1,0,0
"534","2",174,"bRMS","f42887_e_013",NA,9,0.9,"180",0,1,0.642432588660085,1,0,0
"535","2",175,"bRMS","f42887_e_017",NA,9,0.373719281884655,"180",0,1,3.78883935686827,1,0,0
"536","2",176,"bRMS","f42887_e_002",NA,9,0.465553672174608,"180",0,1,2.00193510332429,1,0,0
"537","2",177,"bRMS","f42887_e_017",NA,9,0.3,"180",0,1,2.9181692769107,1,0,0
"538","2",178,"bRMS","f42887_e_025",NA,9,0.722467405584208,"180",0,1,0.8029924318962,1,0,0
"539","2",179,"bRMS","f42887_e_019",NA,9,0.579954613479529,"0",0,1,0.832027375790858,1,0,0
"540","2",180,"bRMS","f42887_e_015",NA,9,0.3,"180",0,1,1.46053939602461,1,0,0
"541","2",181,"bRMS","f42887_e_011",NA,9,0.373719281884655,"180",0,1,0.981746459934584,1,0,0
"542","2",182,"bRMS","f42887_e_018",NA,9,0.579954613479529,"180",0,1,0.682553825281502,1,0,0
"543","2",183,"bRMS","f42887_e_014",NA,10,0.722467405584208,"0",0,2,0.702064143690222,1,0,0
"544","2",184,"bRMS","f42887_e_000",NA,9,0.722467405584208,"0",0,1,0.671603362028691,1,0,0
"545","2",185,"bRMS","f42887_e_025",NA,9,0.722467405584208,"0",0,1,0.650238684389478,1,0,0
"546","2",186,"bRMS","f42887_e_006",NA,9,0.3,"0",0,1,1.75834179103003,1,0,0
"547","2",187,"bRMS","f42887_e_002",NA,9,0.373719281884655,"0",0,1,0.71778567029105,1,0,0
"548","2",188,"bRMS","f42887_e_022",NA,9,0.579954613479529,"180",0,1,0.790587575447717,1,0,0
"549","2",189,"bRMS","f42887_e_006",NA,9,0.722467405584208,"0",0,1,0.548751812202681,1,0,0
"550","2",190,"bRMS","f42887_e_012",NA,9,0.722467405584208,"180",0,1,0.5641554808808,1,0,0
"551","2",191,"bRMS","f42887_e_020",NA,10,0.373719281884655,"0",0,2,1.31487244954769,1,0,0
"552","2",192,"bRMS","f42887_e_029",NA,10,0.579954613479529,"0",0,2,0.787900112596617,1,0,0
"553","2",193,"bRMS","f42887_e_016",NA,10,0.373719281884655,"0",0,2,0.937861850447007,1,0,0
"554","2",194,"bRMS","f42887_e_019",NA,9,0.3,"0",0,1,0.866654211158675,1,0,0
"555","2",195,"bRMS","f42887_e_006",NA,9,0.9,"0",0,1,0.629697061098341,1,0,0
"556","2",196,"bRMS","f42887_e_011",NA,10,0.9,"180",0,2,0.728897012937523,1,0,0
"557","2",197,"bRMS","f42887_e_018",NA,9,0.9,"0",0,1,0.640343101649705,1,0,0
"558","2",198,"bRMS","f42887_e_007",NA,10,0.3,"180",0,1,6.97326228868587,0,0,0
"559","2",199,"bRMS","f42887_e_003",NA,9,0.465553672174608,"180",0,1,1.49026533220604,1,0,0
"560","2",200,"bRMS","f42887_e_004",NA,9,0.9,"180",0,1,0.676376433812038,1,1,0
"561","2",201,"bRMS","f42887_e_010",NA,9,0.3,"0",0,1,8.33434109186783,1,0,0
"562","2",202,"bRMS","f42887_e_026",NA,9,0.9,"180",0,1,0.774927629930971,1,0,0
"563","2",203,"bRMS","f42887_e_002",NA,9,0.9,"0",0,1,0.742050195653064,1,0,0
"564","2",204,"bRMS","f42887_e_007",NA,10,0.9,"0",0,2,0.662602486780088,1,0,0
"565","2",205,"bRMS","f42887_e_001",NA,9,0.3,"0",0,1,1.7453631108383,1,0,0
"566","2",206,"bRMS","f42887_e_014",NA,9,0.9,"0",0,1,0.640841970644033,1,0,0
"567","2",207,"bRMS","f42887_e_020",NA,9,0.9,"180",0,1,0.669069744770241,1,0,0
"568","2",208,"bRMS","f42887_e_022",NA,10,0.3,"180",0,2,5.71233605528323,1,1,0
"569","2",209,"bRMS","f42887_e_023",NA,9,0.465553672174608,"180",0,1,1.67270396183449,1,0,0
"570","2",210,"bRMS","f42887_e_028",NA,10,0.3,"180",0,2,1.73832389519521,1,0,0
"571","2",211,"bRMS","f42887_e_014",NA,10,0.579954613479529,"180",0,2,0.738473804703972,1,0,0
"572","2",212,"bRMS","f42887_e_002",NA,10,0.579954613479529,"180",0,2,0.755268335060464,1,0,0
"573","2",213,"bRMS","f42887_e_006",NA,10,0.465553672174608,"180",0,2,0.754269003226,1,0,0
"574","2",214,"bRMS","f42887_e_012",NA,9,0.3,"0",0,1,2.68870913464343,1,0,0
"575","2",215,"bRMS","f42887_e_021",NA,10,0.9,"180",0,2,0.72992805236936,1,0,0
"576","2",216,"bRMS","f42887_e_019",NA,9,0.722467405584208,"180",0,1,0.663809227233287,1,0,0
"577","2",217,"bRMS","f42887_e_022",NA,10,0.373719281884655,"180",0,2,0.930591861242647,1,0,0
"578","2",218,"bRMS","f42887_e_011",NA,9,0.465553672174608,"180",0,1,0.858945401752862,1,0,0
"579","2",219,"bRMS","f42887_e_018",NA,9,0.465553672174608,"0",0,1,0.725515651540263,1,0,0
"580","2",220,"bRMS","f42887_e_024",NA,10,0.9,"0",0,2,0.59827668925027,1,0,0
"581","2",221,"bRMS","f42887_e_027",NA,9,0.579954613479529,"180",0,1,1.33927015113295,1,0,0
"582","2",222,"bRMS","f42887_e_017",NA,10,0.722467405584208,"180",0,2,0.764549039995472,1,0,0
"583","2",223,"bRMS","f42887_e_000",NA,9,0.579954613479529,"180",0,1,0.616583688375613,1,0,0
"584","2",224,"bRMS","f42887_e_025",NA,10,0.465553672174608,"180",0,2,1.12493307993827,1,0,0
"585","2",225,"bRMS","f42887_e_018",NA,9,0.722467405584208,"180",0,1,0.829545076103386,1,0,0
"586","2",226,"bRMS","f42887_e_021",NA,9,0.465553672174608,"0",0,2,0.642314629418252,0,0,0
"587","2",227,"bRMS","f42887_e_027",NA,10,0.9,"180",0,2,0.692685180612898,1,0,0
"588","2",228,"bRMS","f42887_e_002",NA,10,0.722467405584208,"180",0,2,0.662577605533443,1,0,0
"589","2",229,"bRMS","f42887_e_010",NA,9,0.9,"0",0,1,0.679296559101203,1,0,0
"590","2",230,"bRMS","f42887_e_009",NA,10,0.579954613479529,"0",0,2,0.745671722632324,1,0,0
"591","2",231,"bRMS","f42887_e_016",NA,10,0.722467405584208,"0",0,2,0.697578054951009,1,0,0
"592","2",232,"bRMS","f42887_e_015",NA,9,0.3,"0",0,1,3.24960862902662,1,0,0
"593","2",233,"bRMS","f42887_e_009",NA,10,0.3,"0",0,2,1.4299335967662,1,0,0
"594","2",234,"bRMS","f42887_e_002",NA,10,0.9,"180",0,2,0.729425739424187,1,0,0
"595","2",235,"bRMS","f42887_e_008",NA,10,0.9,"0",0,2,0.648875814114945,1,0,0
"596","2",236,"bRMS","f42887_e_007",NA,10,0.722467405584208,"180",0,2,0.619725878788813,1,0,0
"597","2",237,"bRMS","f42887_e_009",NA,10,0.722467405584208,"0",0,2,0.623024821057697,1,1,0
"598","2",238,"bRMS","f42887_e_010",NA,10,0.722467405584208,"0",0,2,0.642502482829514,1,0,0
"599","2",239,"bRMS","f42887_e_013",NA,9,0.465553672174608,"0",0,1,0.718561343150213,1,0,0
"600","2",240,"bRMS","f42887_e_017",NA,9,0.3,"0",0,1,1.98263067723201,1,0,0
"601","2",241,"bRMS","f42887_e_023",NA,9,0.579954613479529,"180",0,1,0.911487729183136,1,0,0
"602","2",242,"bRMS","f42887_e_022",NA,9,0.465553672174608,"0",0,1,1.04104189145801,1,0,0
"603","2",243,"bRMS","f42887_e_001",NA,10,0.3,"180",0,1,0.475767651914794,0,0,0
"604","2",244,"bRMS","f42887_e_020",NA,9,0.3,"180",0,1,3.99788039319719,1,0,0
"605","2",245,"bRMS","f42887_e_008",NA,10,0.722467405584208,"180",0,2,0.714844395941327,1,0,0
"606","2",246,"bRMS","f42887_e_010",NA,10,0.465553672174608,"180",0,2,1.09100343438149,1,0,0
"607","2",247,"bRMS","f42887_e_023",NA,9,0.9,"0",0,1,0.833791682844094,1,0,0
"608","2",248,"bRMS","f42887_e_022",NA,9,0.373719281884655,"0",0,1,2.18918732109887,1,0,0
"609","2",249,"bRMS","f42887_e_022",NA,9,0.9,"0",0,1,0.690107771712064,1,0,0
"610","2",250,"bRMS","f42887_e_029",NA,9,0.9,"0",0,1,0.651582893731756,1,0,0
"611","2",251,"bRMS","f42887_e_003",NA,9,0.722467405584208,"0",0,1,0.639899055739079,1,0,0
"612","2",252,"bRMS","f42887_e_026",NA,9,0.373719281884655,"180",0,1,1.62778180436726,1,0,0
"613","2",253,"bRMS","f42887_e_001",NA,10,0.9,"0",0,2,0.679219738252868,1,0,0
"614","2",254,"bRMS","f42887_e_006",NA,10,0.579954613479529,"180",0,2,0.785327679943293,1,0,0
"615","2",255,"bRMS","f42887_e_017",NA,10,0.465553672174608,"0",0,2,0.696171020461406,1,0,0
"616","2",256,"bRMS","f42887_e_018",NA,9,0.373719281884655,"180",0,1,0.800953724761712,1,0,0
"617","2",257,"bRMS","f42887_e_005",NA,9,0.373719281884655,"0",0,1,1.26900635979291,1,0,0
"618","2",258,"bRMS","f42887_e_006",NA,10,0.722467405584208,"180",0,2,0.687156544863683,1,0,0
"619","2",259,"bRMS","f42887_e_013",NA,9,0.579954613479529,"180",0,1,0.712155689026986,1,0,0
"620","2",260,"bRMS","f42887_e_010",NA,10,0.579954613479529,"180",0,2,0.785353494236915,1,0,0
"621","2",261,"bRMS","f42887_e_027",NA,9,0.722467405584208,"180",0,1,0.695554587580773,1,0,0
"622","2",262,"bRMS","f42887_e_000",NA,10,0.9,"0",0,2,0.617801648173554,1,0,0
"623","2",263,"bRMS","f42887_e_018",NA,10,0.373719281884655,"0",0,2,1.25440915451873,1,0,0
"624","2",264,"bRMS","f42887_e_009",NA,10,0.3,"180",0,2,3.98645399176894,1,0,0
"625","2",265,"bRMS","f42887_e_015",NA,9,0.465553672174608,"180",0,1,0.735535329495178,1,0,0
"626","2",266,"bRMS","f42887_e_016",NA,9,0.373719281884655,"180",0,1,0.920461196246833,1,0,0
"627","2",267,"bRMS","f42887_e_023",NA,9,0.3,"180",0,1,4.22372155816083,1,0,0
"628","2",268,"bRMS","f42887_e_011",NA,9,0.9,"0",0,1,0.67547417761125,1,0,0
"629","2",269,"bRMS","f42887_e_017",NA,10,0.579954613479529,"180",0,2,1.51743223218546,1,0,0
"630","2",270,"bRMS","f42887_e_004",NA,10,0.579954613479529,"180",0,2,0.750295817953884,1,0,0
"631","2",271,"bRMS","f42887_e_023",NA,9,0.9,"180",0,1,0.813643471479736,1,0,0
"632","2",272,"bRMS","f42887_e_010",NA,10,0.465553672174608,"0",0,2,0.754485819858019,1,0,0
"633","2",273,"bRMS","f42887_e_012",NA,10,0.722467405584208,"0",0,2,0.617871292881318,1,0,0
"634","2",274,"bRMS","f42887_e_019",NA,10,0.722467405584208,"0",0,2,0.614984469040792,1,0,0
"635","2",275,"bRMS","f42887_e_016",NA,10,0.3,"0",0,2,2.30011351617031,1,0,0
"636","2",276,"bRMS","f42887_e_020",NA,10,0.579954613479529,"0",0,1,0.548280001565217,0,0,0
"637","2",277,"bRMS","f42887_e_009",NA,9,0.465553672174608,"180",0,1,1.50767380731668,1,0,0
"638","2",278,"bRMS","f42887_e_021",NA,9,0.3,"0",0,1,1.94057452834568,1,0,0
"639","2",279,"bRMS","f42887_e_015",NA,9,0.465553672174608,"0",0,1,0.756091593304518,1,0,0
"640","2",280,"bRMS","f42887_e_018",NA,10,0.3,"0",0,2,2.26762016335124,1,0,0
"641","2",281,"bRMS","f42887_e_007",NA,10,0.722467405584208,"0",0,2,0.723774586318541,1,0,0
"642","2",282,"bRMS","f42887_e_027",NA,10,0.3,"180",0,2,6.08104751461906,1,0,0
"643","2",283,"bRMS","f42887_e_003",NA,10,0.3,"180",0,2,4.39422620893311,1,0,0
"644","2",284,"bRMS","f42887_e_029",NA,10,0.373719281884655,"180",0,2,2.14260278535403,1,0,0
"645","2",285,"bRMS","f42887_e_008",NA,9,0.465553672174608,"0",0,1,0.877629973792864,1,0,0
"646","2",286,"bRMS","f42887_e_029",NA,10,0.3,"0",0,2,1.32689257972015,1,0,0
"647","2",287,"bRMS","f42887_e_017",NA,10,0.373719281884655,"0",0,2,1.10901185855073,1,0,0
"648","2",288,"bRMS","f42887_e_020",NA,9,0.465553672174608,"0",0,1,1.34852837860853,1,0,0
"649","2",289,"bRMS","f42887_e_024",NA,9,0.373719281884655,"0",0,1,0.835351736997836,1,0,0
"650","2",290,"bRMS","f42887_e_004",NA,10,0.465553672174608,"0",0,2,0.759697592286102,1,0,0
"651","2",291,"bRMS","f42887_e_009",NA,9,0.579954613479529,"180",0,1,0.741567165672677,1,0,0
"652","2",292,"bRMS","f42887_e_009",NA,9,0.373719281884655,"180",0,1,1.47696195174649,1,0,0
"653","2",293,"bRMS","f42887_e_028",NA,9,0.722467405584208,"180",0,1,0.688473695849098,1,0,0
"654","2",294,"bRMS","f42887_e_003",NA,9,0.579954613479529,"0",0,1,0.682561289655496,1,0,0
"655","2",295,"bRMS","f42887_e_005",NA,10,0.3,"180",0,2,1.52539889629224,1,0,0
"656","2",296,"bRMS","f42887_e_000",NA,10,0.9,"180",0,2,0.797573607427694,1,0,0
"657","2",297,"bRMS","f42887_e_008",NA,9,0.579954613479529,"0",0,1,0.897674283171,1,0,0
"658","2",298,"bRMS","f42887_e_007",NA,10,0.579954613479529,"180",0,2,0.731366499430806,1,0,0
"659","2",299,"bRMS","f42887_e_003",NA,9,0.579954613479529,"180",0,1,0.65126627987047,1,0,0
"660","2",300,"bRMS","f42887_e_011",NA,10,0.579954613479529,"0",0,2,0.647986931584455,1,0,0
"661","2",301,"bRMS","f42887_e_002",NA,10,0.579954613479529,"0",0,2,0.612289331125794,1,0,0
"662","2",302,"bRMS","f42887_e_008",NA,9,0.579954613479529,"180",0,1,1.17550574569395,1,0,0
"663","2",303,"bRMS","f42887_e_026",NA,10,0.722467405584208,"0",0,2,0.693052467233429,1,0,0
"664","2",304,"bRMS","f42887_e_003",NA,10,0.722467405584208,"180",0,2,0.707310999323454,1,0,0
"665","2",305,"bRMS","f42887_e_001",NA,10,0.465553672174608,"180",0,2,1.20320665942563,1,0,0
"666","2",306,"bRMS","f42887_e_028",NA,10,0.722467405584208,"0",0,2,0.680003808533002,1,0,0
"667","2",307,"bRMS","f42887_e_002",NA,10,0.722467405584208,"0",0,2,0.657777164376967,1,0,0
"668","2",308,"bRMS","f42887_e_005",NA,9,0.3,"0",0,1,1.21223046549312,1,0,0
"669","2",309,"bRMS","f42887_e_024",NA,10,0.373719281884655,"180",0,2,0.8570189484617,1,0,0
"670","2",310,"bRMS","f42887_e_009",NA,10,0.373719281884655,"0",0,2,0.955432449014552,1,0,0
"671","2",311,"bRMS","f42887_e_027",NA,10,0.579954613479529,"0",0,2,0.652018626560675,1,0,0
"672","2",312,"bRMS","f42887_e_026",NA,9,0.465553672174608,"180",0,1,1.48603552030545,1,1,0
"673","2",313,"bRMS","f42887_e_014",NA,9,0.465553672174608,"0",0,1,0.712168728898178,1,0,0
"674","2",314,"bRMS","f42887_e_004",NA,9,0.9,"0",0,1,0.705641755917895,1,0,0
"675","2",315,"bRMS","f42887_e_025",NA,9,0.579954613479529,"0",0,1,0.771145369451915,1,1,0
"676","2",316,"bRMS","f42887_e_028",NA,10,0.3,"0",0,2,1.70447544748822,1,0,0
"677","2",317,"bRMS","f42887_e_025",NA,9,0.3,"0",0,1,1.64874612061794,1,0,0
"678","2",318,"bRMS","f42887_e_012",NA,10,0.373719281884655,"0",0,2,0.82033652678183,1,0,0
"679","2",319,"bRMS","f42887_e_003",NA,9,0.9,"180",0,1,0.711674214126106,1,0,0
"680","2",320,"bRMS","f42887_e_001",NA,9,0.722467405584208,"180",0,1,0.72873188644553,1,0,0
"681","2",321,"bRMS","f42887_e_022",NA,9,0.3,"0",0,1,1.20851849453356,1,0,0
"682","2",322,"bRMS","f42887_e_006",NA,10,0.465553672174608,"0",0,2,0.958749656863802,1,0,0
"683","2",323,"bRMS","f42887_e_011",NA,10,0.722467405584208,"180",0,2,0.716368706085632,1,0,0
"684","2",324,"bRMS","f42887_e_015",NA,10,0.722467405584208,"180",0,2,0.780296069875476,1,0,0
"685","2",325,"bRMS","f42887_e_004",NA,10,0.579954613479529,"0",0,2,0.612381245846336,1,0,0
"686","2",326,"bRMS","f42887_e_008",NA,9,0.722467405584208,"0",0,1,0.712691008397087,1,0,0
"687","2",327,"bRMS","f42887_e_016",NA,9,0.579954613479529,"0",0,1,0.656669864574724,1,0,0
"688","2",328,"bRMS","f42887_e_016",NA,9,0.3,"180",0,1,2.08468732996516,1,0,0
"689","2",329,"bRMS","f42887_e_025",NA,10,0.9,"0",0,2,0.980848868968678,1,0,0
"690","2",330,"bRMS","f42887_e_006",NA,10,0.579954613479529,"0",0,2,0.691086848759369,1,0,0
"691","2",331,"bRMS","f42887_e_024",NA,10,0.3,"180",0,2,2.03606597596081,1,0,0
"692","2",332,"bRMS","f42887_e_014",NA,9,0.579954613479529,"0",0,1,0.677320055085147,1,0,0
"693","2",333,"bRMS","f42887_e_019",NA,9,0.9,"180",0,1,0.687402869203652,1,0,0
"694","2",334,"bRMS","f42887_e_029",NA,9,0.722467405584208,"180",0,1,0.714184109863709,1,0,0
"695","2",335,"bRMS","f42887_e_015",NA,9,0.722467405584208,"0",0,1,0.603616204743958,1,0,0
"696","2",336,"bRMS","f42887_e_013",NA,10,0.373719281884655,"180",0,2,1.73777992894247,1,0,0
"697","2",337,"bRMS","f42887_e_011",NA,10,0.3,"0",0,2,1.66530987741135,1,0,0
"698","2",338,"bRMS","f42887_e_016",NA,10,0.722467405584208,"180",0,2,0.69370661733592,1,0,0
"699","2",339,"bRMS","f42887_e_000",NA,10,0.3,"0",0,2,2.18214717241062,1,0,0
"700","2",340,"bRMS","f42887_e_004",NA,9,0.722467405584208,"180",0,1,0.675125529147408,1,0,0
"701","2",341,"bRMS","f42887_e_020",NA,9,0.9,"0",0,1,0.589175440303734,1,0,0
"702","2",342,"bRMS","f42887_e_008",NA,9,0.3,"0",0,1,1.00395328343075,1,0,0
"703","2",343,"bRMS","f42887_e_008",NA,10,0.373719281884655,"0",0,2,1.4010240992684,1,0,0
"704","2",344,"bRMS","f42887_e_021",NA,10,0.579954613479529,"0",0,2,0.772886745689902,1,0,0
"705","2",345,"bRMS","f42887_e_000",NA,9,0.3,"180",0,1,3.88241430369089,1,0,0
"706","2",346,"bRMS","f42887_e_024",NA,10,0.3,"0",0,2,1.38594821823062,1,0,0
"707","2",347,"bRMS","f42887_e_005",NA,10,0.722467405584208,"180",0,2,0.803687636054747,1,0,0
"708","2",348,"bRMS","f42887_e_004",NA,10,0.373719281884655,"180",0,2,1.2455903077207,1,0,0
"709","2",349,"bRMS","f42887_e_023",NA,9,0.722467405584208,"180",0,1,1.06111670314749,1,0,0
"710","2",350,"bRMS","f42887_e_028",NA,10,0.373719281884655,"180",0,2,1.19191461672926,1,0,0
"711","2",351,"bRMS","f42887_e_023",NA,9,0.579954613479529,"0",0,1,0.669304561533863,1,0,0
"712","2",352,"bRMS","f42887_e_019",NA,10,0.373719281884655,"180",0,2,2.16038108077555,1,0,0
"713","2",353,"bRMS","f42887_e_022",NA,10,0.9,"180",0,2,0.733696605380828,1,0,0
"714","2",354,"bRMS","f42887_e_012",NA,10,0.579954613479529,"0",0,2,0.726467981248788,1,0,0
"715","2",355,"bRMS","f42887_e_011",NA,9,0.465553672174608,"0",0,1,0.813153621940728,1,0,0
"716","2",356,"bRMS","f42887_e_012",NA,10,0.9,"180",0,2,0.721979404384911,1,0,0
"717","2",357,"bRMS","f42887_e_005",NA,9,0.465553672174608,"180",0,1,1.24168154823565,1,0,0
"718","2",358,"bRMS","f42887_e_014",NA,10,0.373719281884655,"0",0,2,1.2761976620568,1,0,0
"719","2",359,"bRMS","f42887_e_024",NA,10,0.722467405584208,"0",0,2,0.678345784472185,1,0,0
"720","2",360,"bRMS","f42887_e_014",NA,10,0.9,"180",0,2,0.583810110518243,1,0,0
"721","3",1,"bRMS","f42887_e_009",NA,10,0.373719281884655,"180",0,2,0.736146688461304,1,0,1
"722","3",2,"bRMS","f42887_e_009",NA,9,0.3,"180",0,1,0.977592468261719,1,0,1
"723","3",3,"bRMS","f42887_e_021",NA,9,0.9,"180",0,1,0.72302770614624,1,0,1
"724","3",4,"bRMS","f42887_e_019",NA,10,0.9,"180",0,2,0.749122142791748,1,0,1
"725","3",5,"bRMS","f42887_e_008",NA,10,0.722467405584208,"180",0,2,0.679240465164185,1,0,1
"726","3",6,"bRMS","f42887_e_020",NA,10,0.9,"0",0,2,0.62136173248291,1,0,1
"727","3",7,"bRMS","f42887_e_000",NA,10,0.373719281884655,"180",0,2,2.11540722846985,1,0,1
"728","3",8,"bRMS","f42887_e_005",NA,10,0.3,"180",0,2,9.06976509094238,1,0,1
"729","3",9,"bRMS","f42887_e_022",NA,9,0.579954613479529,"0",0,1,0.940115451812744,1,0,1
"730","3",10,"bRMS","f42887_e_017",NA,10,0.722467405584208,"180",0,2,0.974328279495239,1,0,1
"731","3",11,"bRMS","f42887_e_025",NA,9,0.722467405584208,"0",0,1,1.14437222480774,1,0,1
"732","3",12,"bRMS","f42887_e_027",NA,10,0.579954613479529,"0",0,2,0.666517734527588,1,0,1
"733","3",13,"bRMS","f42887_e_008",NA,9,0.579954613479529,"0",0,1,1.40862011909485,1,0,1
"734","3",14,"bRMS","f42887_e_004",NA,9,0.722467405584208,"180",0,1,0.718827247619629,1,0,1
"735","3",15,"bRMS","f42887_e_003",NA,10,0.722467405584208,"0",0,2,0.60107946395874,1,0,1
"736","3",16,"bRMS","f42887_e_000",NA,10,0.3,"0",0,2,7.95511770248413,1,0,1
"737","3",17,"bRMS","f42887_e_002",NA,10,0.722467405584208,"180",0,2,0.869566440582275,1,0,1
"738","3",18,"bRMS","f42887_e_003",NA,9,0.579954613479529,"180",0,1,1.10756468772888,1,0,1
"739","3",19,"bRMS","f42887_e_000",NA,9,0.579954613479529,"180",0,1,1.00571346282959,1,0,1
"740","3",20,"bRMS","f42887_e_002",NA,10,0.579954613479529,"0",0,2,0.61991548538208,1,0,1
"741","3",21,"bRMS","f42887_e_028",NA,10,0.9,"0",0,2,0.609933376312256,1,0,1
"742","3",22,"bRMS","f42887_e_007",NA,10,0.465553672174608,"180",0,2,0.744039058685303,1,0,1
"743","3",23,"bRMS","f42887_e_003",NA,9,0.722467405584208,"180",0,1,1.01817607879639,1,0,1
"744","3",24,"bRMS","f42887_e_006",NA,10,0.3,"0",0,2,5.47243523597717,1,0,1
"745","3",25,"bRMS","f42887_e_002",NA,10,0.9,"180",0,2,0.702649354934692,1,0,1
"746","3",26,"bRMS","f42887_e_029",NA,9,0.465553672174608,"180",0,1,1.17284321784973,1,0,1
"747","3",27,"bRMS","f42887_e_001",NA,10,0.373719281884655,"0",0,2,0.854901552200317,1,0,1
"748","3",28,"bRMS","f42887_e_014",NA,9,0.373719281884655,"0",0,1,1.13366317749023,1,0,1
"749","3",29,"bRMS","f42887_e_008",NA,10,0.3,"0",0,2,1.33575510978699,1,0,1
"750","3",30,"bRMS","f42887_e_010",NA,9,0.465553672174608,"0",0,1,0.865297555923462,1,0,1
"751","3",31,"bRMS","f42887_e_028",NA,9,0.9,"180",0,1,0.647463083267212,1,0,1
"752","3",32,"bRMS","f42887_e_011",NA,9,0.722467405584208,"180",0,1,0.621482133865356,1,0,1
"753","3",33,"bRMS","f42887_e_006",NA,10,0.579954613479529,"0",0,2,0.62767481803894,1,0,1
"754","3",34,"bRMS","f42887_e_014",NA,9,0.722467405584208,"180",0,1,0.665775060653687,1,0,1
"755","3",35,"bRMS","f42887_e_005",NA,10,0.373719281884655,"0",0,2,1.70383214950562,1,0,1
"756","3",36,"bRMS","f42887_e_026",NA,9,0.579954613479529,"0",0,1,0.749939203262329,1,0,1
"757","3",37,"bRMS","f42887_e_007",NA,10,0.722467405584208,"0",0,2,0.704087018966675,1,0,1
"758","3",38,"bRMS","f42887_e_022",NA,9,0.373719281884655,"0",0,1,1.10258626937866,1,0,1
"759","3",39,"bRMS","f42887_e_009",NA,10,0.9,"180",0,2,0.626256704330444,1,0,1
"760","3",40,"bRMS","f42887_e_018",NA,9,0.579954613479529,"0",0,1,0.616388082504272,1,0,1
"761","3",41,"bRMS","f42887_e_000",NA,9,0.3,"180",0,1,4.06258845329285,1,0,1
"762","3",42,"bRMS","f42887_e_014",NA,9,0.9,"0",0,1,0.836761236190796,1,0,1
"763","3",43,"bRMS","f42887_e_011",NA,10,0.9,"0",0,2,0.682988405227661,1,0,1
"764","3",44,"bRMS","f42887_e_014",NA,10,0.579954613479529,"180",0,2,0.625083923339844,1,0,1
"765","3",45,"bRMS","f42887_e_028",NA,9,0.722467405584208,"180",0,1,0.687180042266846,1,0,1
"766","3",46,"bRMS","f42887_e_000",NA,9,0.465553672174608,"0",0,1,0.707861185073853,1,0,1
"767","3",47,"bRMS","f42887_e_014",NA,10,0.3,"180",0,2,3.38211417198181,1,0,1
"768","3",48,"bRMS","f42887_e_029",NA,9,0.373719281884655,"0",0,1,1.16027545928955,1,0,1
"769","3",49,"bRMS","f42887_e_018",NA,9,0.722467405584208,"0",0,1,0.67443323135376,1,0,1
"770","3",50,"bRMS","f42887_e_014",NA,10,0.465553672174608,"180",0,2,1.18449473381042,1,0,1
"771","3",51,"bRMS","f42887_e_024",NA,9,0.465553672174608,"0",0,1,0.938928127288818,1,0,1
"772","3",52,"bRMS","f42887_e_008",NA,10,0.373719281884655,"0",0,2,1.51683378219604,1,0,1
"773","3",53,"bRMS","f42887_e_005",NA,9,0.465553672174608,"0",0,1,0.78292441368103,1,0,1
"774","3",54,"bRMS","f42887_e_022",NA,10,0.3,"180",0,2,1.92841649055481,1,0,1
"775","3",55,"bRMS","f42887_e_008",NA,9,0.9,"180",0,1,0.666529893875122,1,0,1
"776","3",56,"bRMS","f42887_e_018",NA,9,0.3,"0",0,1,4.92004799842834,1,0,1
"777","3",57,"bRMS","f42887_e_018",NA,10,0.9,"0",0,2,0.754273653030396,1,0,1
"778","3",58,"bRMS","f42887_e_001",NA,9,0.579954613479529,"0",0,1,0.644368410110474,1,0,1
"779","3",59,"bRMS","f42887_e_013",NA,10,0.579954613479529,"0",0,2,0.913851022720337,1,0,1
"780","3",60,"bRMS","f42887_e_024",NA,10,0.3,"180",0,2,2.54798054695129,1,0,1
"781","3",61,"bRMS","f42887_e_000",NA,10,0.465553672174608,"180",0,2,0.91813325881958,1,0,1
"782","3",62,"bRMS","f42887_e_012",NA,9,0.373719281884655,"180",0,1,2.68038725852966,1,0,1
"783","3",63,"bRMS","f42887_e_012",NA,9,0.722467405584208,"0",0,1,0.756487369537354,1,0,1
"784","3",64,"bRMS","f42887_e_024",NA,9,0.579954613479529,"0",0,1,0.638535737991333,1,0,1
"785","3",65,"bRMS","f42887_e_019",NA,9,0.465553672174608,"0",0,1,0.748106956481934,1,0,1
"786","3",66,"bRMS","f42887_e_008",NA,9,0.373719281884655,"180",0,1,2.60613775253296,1,0,1
"787","3",67,"bRMS","f42887_e_014",NA,10,0.373719281884655,"180",0,2,2.01237845420837,1,0,1
"788","3",68,"bRMS","f42887_e_024",NA,10,0.3,"0",0,1,6.94664192199707,0,0,1
"789","3",69,"bRMS","f42887_e_017",NA,10,0.465553672174608,"0",0,2,0.908320426940918,1,0,1
"790","3",70,"bRMS","f42887_e_020",NA,9,0.579954613479529,"0",0,1,0.758460283279419,1,0,1
"791","3",71,"bRMS","f42887_e_001",NA,9,0.722467405584208,"180",0,1,0.86460280418396,1,0,1
"792","3",72,"bRMS","f42887_e_016",NA,9,0.373719281884655,"180",0,1,1.12673878669739,1,0,1
"793","3",73,"bRMS","f42887_e_011",NA,9,0.3,"0",0,1,1.48886561393738,1,0,1
"794","3",74,"bRMS","f42887_e_004",NA,9,0.465553672174608,"0",0,1,1.14895844459534,1,0,1
"795","3",75,"bRMS","f42887_e_022",NA,10,0.373719281884655,"180",0,2,1.6550874710083,1,0,1
"796","3",76,"bRMS","f42887_e_016",NA,9,0.3,"180",0,1,2.8373122215271,1,0,1
"797","3",77,"bRMS","f42887_e_015",NA,9,0.579954613479529,"180",0,1,1.21154069900513,1,0,1
"798","3",78,"bRMS","f42887_e_020",NA,10,0.373719281884655,"180",0,2,1.7136857509613,1,0,1
"799","3",79,"bRMS","f42887_e_013",NA,9,0.3,"0",0,1,2.67588043212891,1,0,1
"800","3",80,"bRMS","f42887_e_017",NA,9,0.3,"0",0,1,2.23414778709412,1,0,1
"801","3",81,"bRMS","f42887_e_021",NA,10,0.579954613479529,"180",0,2,0.880258083343506,1,0,1
"802","3",82,"bRMS","f42887_e_000",NA,9,0.579954613479529,"0",0,1,0.822372674942017,1,0,1
"803","3",83,"bRMS","f42887_e_020",NA,10,0.579954613479529,"180",0,2,0.772486209869385,1,0,1
"804","3",84,"bRMS","f42887_e_016",NA,10,0.9,"0",0,2,0.622579574584961,1,0,1
"805","3",85,"bRMS","f42887_e_001",NA,10,0.722467405584208,"0",0,2,0.612601280212402,1,0,1
"806","3",86,"bRMS","f42887_e_015",NA,9,0.9,"180",0,1,0.730800867080688,1,0,1
"807","3",87,"bRMS","f42887_e_009",NA,10,0.722467405584208,"180",0,2,0.628236770629883,1,0,1
"808","3",88,"bRMS","f42887_e_022",NA,10,0.9,"180",0,2,0.63427209854126,1,0,1
"809","3",89,"bRMS","f42887_e_001",NA,9,0.3,"0",0,1,1.40036487579346,1,0,1
"810","3",90,"bRMS","f42887_e_017",NA,9,0.465553672174608,"180",0,1,1.68127417564392,1,0,1
"811","3",91,"bRMS","f42887_e_021",NA,9,0.579954613479529,"0",0,1,1.57473683357239,1,0,1
"812","3",92,"bRMS","f42887_e_016",NA,10,0.465553672174608,"180",0,2,0.768878221511841,1,0,1
"813","3",93,"bRMS","f42887_e_008",NA,10,0.9,"0",0,2,0.706888437271118,1,0,1
"814","3",94,"bRMS","f42887_e_025",NA,9,0.579954613479529,"180",0,1,0.925096988677979,1,0,1
"815","3",95,"bRMS","f42887_e_007",NA,9,0.3,"180",0,1,5.29528570175171,1,0,1
"816","3",96,"bRMS","f42887_e_009",NA,10,0.9,"0",0,2,0.789576053619385,1,0,1
"817","3",97,"bRMS","f42887_e_012",NA,9,0.9,"0",0,1,0.727016925811768,1,0,1
"818","3",98,"bRMS","f42887_e_000",NA,10,0.373719281884655,"0",0,2,4.65711832046509,1,0,1
"819","3",99,"bRMS","f42887_e_003",NA,9,0.579954613479529,"0",0,1,1.42341303825378,1,0,1
"820","3",100,"bRMS","f42887_e_022",NA,10,0.579954613479529,"180",0,2,0.838293552398682,1,0,1
"821","3",101,"bRMS","f42887_e_029",NA,10,0.579954613479529,"0",0,2,1.00362372398376,1,0,1
"822","3",102,"bRMS","f42887_e_025",NA,9,0.373719281884655,"0",0,1,0.989842653274536,1,0,1
"823","3",103,"bRMS","f42887_e_010",NA,9,0.722467405584208,"0",0,1,0.735864877700806,1,0,1
"824","3",104,"bRMS","f42887_e_005",NA,10,0.3,"0",0,2,1.58607244491577,1,0,1
"825","3",105,"bRMS","f42887_e_007",NA,9,0.579954613479529,"0",0,1,1.39623212814331,1,0,1
"826","3",106,"bRMS","f42887_e_009",NA,9,0.373719281884655,"0",0,1,0.93238091468811,1,0,1
"827","3",107,"bRMS","f42887_e_015",NA,10,0.373719281884655,"0",0,2,1.75048518180847,1,0,1
"828","3",108,"bRMS","f42887_e_012",NA,10,0.3,"180",0,2,9.66477417945862,1,0,1
"829","3",109,"bRMS","f42887_e_004",NA,9,0.465553672174608,"180",0,1,1.11116981506348,1,0,1
"830","3",110,"bRMS","f42887_e_020",NA,9,0.465553672174608,"180",0,1,1.21730518341064,1,0,1
"831","3",111,"bRMS","f42887_e_003",NA,10,0.373719281884655,"0",0,2,2.91954445838928,1,0,1
"832","3",112,"bRMS","f42887_e_021",NA,9,0.465553672174608,"0",0,1,1.02573680877686,1,0,1
"833","3",113,"bRMS","f42887_e_004",NA,9,0.9,"0",0,1,0.655822992324829,1,0,1
"834","3",114,"bRMS","f42887_e_024",NA,10,0.579954613479529,"180",0,2,0.725881814956665,1,0,1
"835","3",115,"bRMS","f42887_e_006",NA,9,0.373719281884655,"180",0,1,2.33600735664368,1,0,1
"836","3",116,"bRMS","f42887_e_016",NA,10,0.9,"180",0,2,0.674276113510132,1,0,1
"837","3",117,"bRMS","f42887_e_010",NA,10,0.3,"0",0,2,2.40828824043274,1,0,1
"838","3",118,"bRMS","f42887_e_005",NA,9,0.9,"180",0,1,0.74249792098999,1,0,1
"839","3",119,"bRMS","f42887_e_019",NA,10,0.3,"0",0,2,3.52073502540588,1,0,1
"840","3",120,"bRMS","f42887_e_015",NA,10,0.579954613479529,"0",0,2,1.77893924713135,1,0,1
"841","3",121,"bRMS","f42887_e_010",NA,9,0.579954613479529,"0",0,1,0.733051300048828,1,0,1
"842","3",122,"bRMS","f42887_e_005",NA,10,0.465553672174608,"180",0,2,2.68726134300232,1,0,1
"843","3",123,"bRMS","f42887_e_026",NA,10,0.3,"180",0,2,2.06146025657654,1,0,1
"844","3",124,"bRMS","f42887_e_006",NA,10,0.465553672174608,"180",0,2,1.28363633155823,1,0,1
"845","3",125,"bRMS","f42887_e_015",NA,10,0.722467405584208,"180",0,2,0.78578782081604,1,0,1
"846","3",126,"bRMS","f42887_e_005",NA,10,0.579954613479529,"180",0,2,1.02788949012756,1,0,1
"847","3",127,"bRMS","f42887_e_004",NA,9,0.579954613479529,"0",0,1,1.25801348686218,1,0,1
"848","3",128,"bRMS","f42887_e_021",NA,10,0.373719281884655,"180",0,2,1.52012014389038,1,0,1
"849","3",129,"bRMS","f42887_e_002",NA,9,0.373719281884655,"0",0,1,0.810207366943359,1,0,1
"850","3",130,"bRMS","f42887_e_026",NA,9,0.373719281884655,"0",0,1,2.43242835998535,1,0,1
"851","3",131,"bRMS","f42887_e_026",NA,9,0.465553672174608,"180",0,1,1.2145299911499,1,0,1
"852","3",132,"bRMS","f42887_e_023",NA,10,0.373719281884655,"0",0,2,1.83681511878967,1,0,1
"853","3",133,"bRMS","f42887_e_014",NA,10,0.722467405584208,"0",0,2,0.635695695877075,1,0,1
"854","3",134,"bRMS","f42887_e_020",NA,9,0.9,"180",0,1,0.624961137771606,1,0,1
"855","3",135,"bRMS","f42887_e_013",NA,9,0.722467405584208,"0",0,1,0.783046007156372,1,0,1
"856","3",136,"bRMS","f42887_e_007",NA,10,0.3,"0",0,2,2.46520137786865,1,0,1
"857","3",137,"bRMS","f42887_e_003",NA,9,0.9,"180",0,1,0.711348056793213,1,0,1
"858","3",138,"bRMS","f42887_e_014",NA,10,0.3,"0",0,2,1.86550116539001,1,0,1
"859","3",139,"bRMS","f42887_e_018",NA,10,0.373719281884655,"180",0,2,1.8156840801239,1,0,1
"860","3",140,"bRMS","f42887_e_007",NA,9,0.9,"0",0,1,0.661776542663574,1,0,1
"861","3",141,"bRMS","f42887_e_022",NA,10,0.465553672174608,"180",0,2,2.3719539642334,1,0,1
"862","3",142,"bRMS","f42887_e_021",NA,10,0.3,"180",0,2,1.18219113349915,1,0,1
"863","3",143,"bRMS","f42887_e_004",NA,9,0.373719281884655,"180",0,1,1.09632515907288,1,0,1
"864","3",144,"bRMS","f42887_e_026",NA,9,0.9,"0",0,1,0.622438430786133,1,0,1
"865","3",145,"bRMS","f42887_e_010",NA,10,0.373719281884655,"0",0,2,1.74855780601501,1,0,1
"866","3",146,"bRMS","f42887_e_012",NA,10,0.3,"0",0,2,1.85472416877747,1,0,1
"867","3",147,"bRMS","f42887_e_000",NA,10,0.722467405584208,"0",0,2,0.668878078460693,1,0,1
"868","3",148,"bRMS","f42887_e_027",NA,9,0.579954613479529,"180",0,1,0.690979719161987,1,0,1
"869","3",149,"bRMS","f42887_e_025",NA,9,0.579954613479529,"0",0,1,0.753081083297729,1,0,1
"870","3",150,"bRMS","f42887_e_017",NA,10,0.9,"0",0,2,0.627084970474243,1,0,1
"871","3",151,"bRMS","f42887_e_007",NA,10,0.722467405584208,"180",0,2,0.737236022949219,1,0,1
"872","3",152,"bRMS","f42887_e_019",NA,10,0.579954613479529,"180",0,2,0.59539270401001,1,0,1
"873","3",153,"bRMS","f42887_e_024",NA,10,0.373719281884655,"180",0,2,0.588152647018433,1,0,1
"874","3",154,"bRMS","f42887_e_015",NA,9,0.9,"0",0,1,0.581602811813354,1,0,1
"875","3",155,"bRMS","f42887_e_018",NA,10,0.465553672174608,"0",0,2,0.799639225006104,1,0,1
"876","3",156,"bRMS","f42887_e_013",NA,10,0.579954613479529,"180",0,2,0.736429929733276,1,0,1
"877","3",157,"bRMS","f42887_e_023",NA,9,0.465553672174608,"0",0,1,1.40251231193542,1,0,1
"878","3",158,"bRMS","f42887_e_024",NA,10,0.9,"180",0,2,0.627311944961548,1,0,1
"879","3",159,"bRMS","f42887_e_006",NA,9,0.722467405584208,"180",0,1,0.793499946594238,1,0,1
"880","3",160,"bRMS","f42887_e_009",NA,9,0.579954613479529,"180",0,1,0.698945999145508,1,0,1
"881","3",161,"bRMS","f42887_e_015",NA,9,0.722467405584208,"0",0,1,0.632286310195923,1,0,1
"882","3",162,"bRMS","f42887_e_002",NA,9,0.579954613479529,"180",0,1,1.25442934036255,1,0,1
"883","3",163,"bRMS","f42887_e_025",NA,9,0.465553672174608,"180",0,1,0.876621961593628,1,0,1
"884","3",164,"bRMS","f42887_e_019",NA,10,0.579954613479529,"0",0,2,0.858693599700928,1,0,1
"885","3",165,"bRMS","f42887_e_010",NA,10,0.465553672174608,"180",0,2,0.968825101852417,1,0,1
"886","3",166,"bRMS","f42887_e_012",NA,9,0.465553672174608,"180",0,1,1.42628002166748,1,0,1
"887","3",167,"bRMS","f42887_e_005",NA,9,0.722467405584208,"180",0,1,1.1844584941864,1,0,1
"888","3",168,"bRMS","f42887_e_029",NA,9,0.579954613479529,"180",0,1,0.842506408691406,1,0,1
"889","3",169,"bRMS","f42887_e_010",NA,10,0.373719281884655,"180",0,2,1.30522561073303,1,0,1
"890","3",170,"bRMS","f42887_e_018",NA,9,0.465553672174608,"180",0,1,1.49085021018982,1,0,1
"891","3",171,"bRMS","f42887_e_027",NA,9,0.722467405584208,"0",0,1,0.864972591400146,1,0,1
"892","3",172,"bRMS","f42887_e_007",NA,9,0.465553672174608,"0",0,1,0.831088304519653,1,0,1
"893","3",173,"bRMS","f42887_e_026",NA,10,0.3,"0",0,1,2.27723717689514,0,0,1
"894","3",174,"bRMS","f42887_e_020",NA,10,0.465553672174608,"0",0,2,0.963321924209595,1,0,1
"895","3",175,"bRMS","f42887_e_012",NA,10,0.579954613479529,"180",0,2,0.861492156982422,1,0,1
"896","3",176,"bRMS","f42887_e_020",NA,9,0.373719281884655,"0",0,1,1.38765335083008,1,0,1
"897","3",177,"bRMS","f42887_e_013",NA,9,0.465553672174608,"0",0,1,1.22170829772949,1,0,1
"898","3",178,"bRMS","f42887_e_019",NA,10,0.373719281884655,"0",0,2,1.07592821121216,1,0,1
"899","3",179,"bRMS","f42887_e_028",NA,9,0.465553672174608,"180",0,1,1.62533235549927,1,0,1
"900","3",180,"bRMS","f42887_e_013",NA,9,0.373719281884655,"180",0,1,2.53559851646423,1,0,1
"901","3",181,"bRMS","f42887_e_003",NA,10,0.9,"0",0,2,0.773754596710205,1,0,1
"902","3",182,"bRMS","f42887_e_027",NA,10,0.3,"180",0,2,1.44786643981934,1,0,1
"903","3",183,"bRMS","f42887_e_002",NA,10,0.465553672174608,"180",0,2,1.14995908737183,1,0,1
"904","3",184,"bRMS","f42887_e_005",NA,9,0.9,"0",0,1,0.616073131561279,1,0,1
"905","3",185,"bRMS","f42887_e_015",NA,10,0.3,"180",0,2,1.99025726318359,1,0,1
"906","3",186,"bRMS","f42887_e_028",NA,9,0.579954613479529,"0",0,1,0.68041729927063,1,0,1
"907","3",187,"bRMS","f42887_e_013",NA,10,0.722467405584208,"180",0,2,0.789864301681519,1,0,1
"908","3",188,"bRMS","f42887_e_004",NA,9,0.9,"180",0,1,0.655252933502197,1,0,1
"909","3",189,"bRMS","f42887_e_008",NA,9,0.722467405584208,"0",0,1,0.652750253677368,1,0,1
"910","3",190,"bRMS","f42887_e_005",NA,9,0.579954613479529,"0",0,1,1.22610569000244,1,0,1
"911","3",191,"bRMS","f42887_e_026",NA,10,0.465553672174608,"0",0,2,0.712238788604736,1,0,1
"912","3",192,"bRMS","f42887_e_016",NA,10,0.722467405584208,"0",0,2,0.690430164337158,1,0,1
"913","3",193,"bRMS","f42887_e_001",NA,10,0.9,"0",0,2,0.656535625457764,1,0,1
"914","3",194,"bRMS","f42887_e_019",NA,10,0.3,"180",0,1,0.96656346321106,0,0,1
"915","3",195,"bRMS","f42887_e_001",NA,9,0.579954613479529,"180",0,1,0.799431324005127,1,0,1
"916","3",196,"bRMS","f42887_e_029",NA,10,0.373719281884655,"180",0,2,1.21545910835266,1,0,1
"917","3",197,"bRMS","f42887_e_019",NA,9,0.373719281884655,"180",0,1,2.3024468421936,1,0,1
"918","3",198,"bRMS","f42887_e_000",NA,10,0.9,"180",0,2,0.69853138923645,1,0,1
"919","3",199,"bRMS","f42887_e_027",NA,10,0.9,"0",0,2,0.639877080917358,1,0,1
"920","3",200,"bRMS","f42887_e_027",NA,9,0.465553672174608,"0",0,1,1.05406427383423,1,0,1
"921","3",201,"bRMS","f42887_e_008",NA,9,0.465553672174608,"180",0,1,1.59553194046021,1,0,1
"922","3",202,"bRMS","f42887_e_002",NA,10,0.722467405584208,"0",0,2,0.701632499694824,1,0,1
"923","3",203,"bRMS","f42887_e_024",NA,9,0.373719281884655,"0",0,1,0.746458768844604,1,0,1
"924","3",204,"bRMS","f42887_e_010",NA,10,0.9,"0",0,2,0.636521339416504,1,0,1
"925","3",205,"bRMS","f42887_e_026",NA,10,0.373719281884655,"180",0,2,1.57866740226746,1,0,1
"926","3",206,"bRMS","f42887_e_006",NA,10,0.722467405584208,"0",0,2,0.748809337615967,1,0,1
"927","3",207,"bRMS","f42887_e_007",NA,10,0.373719281884655,"180",0,2,1.76686978340149,1,0,1
"928","3",208,"bRMS","f42887_e_011",NA,9,0.579954613479529,"180",0,1,1.13699197769165,1,0,1
"929","3",209,"bRMS","f42887_e_025",NA,10,0.465553672174608,"0",0,2,1.03569722175598,1,0,1
"930","3",210,"bRMS","f42887_e_022",NA,9,0.3,"0",0,1,3.96939134597778,1,0,1
"931","3",211,"bRMS","f42887_e_025",NA,9,0.722467405584208,"180",0,1,0.947629690170288,1,0,1
"932","3",212,"bRMS","f42887_e_003",NA,10,0.465553672174608,"180",0,2,0.85374927520752,1,0,1
"933","3",213,"bRMS","f42887_e_022",NA,10,0.722467405584208,"180",0,2,0.691211462020874,1,0,1
"934","3",214,"bRMS","f42887_e_029",NA,9,0.9,"0",0,1,0.639202117919922,1,0,1
"935","3",215,"bRMS","f42887_e_007",NA,10,0.9,"180",0,2,0.605449199676514,1,0,1
"936","3",216,"bRMS","f42887_e_018",NA,9,0.579954613479529,"180",0,1,1.32347583770752,1,0,1
"937","3",217,"bRMS","f42887_e_029",NA,9,0.3,"0",0,1,1.16562604904175,1,0,1
"938","3",218,"bRMS","f42887_e_019",NA,9,0.465553672174608,"180",0,1,1.0637845993042,1,0,1
"939","3",219,"bRMS","f42887_e_008",NA,10,0.465553672174608,"0",0,2,1.68525743484497,1,0,1
"940","3",220,"bRMS","f42887_e_017",NA,9,0.3,"180",0,1,7.63537430763245,1,0,1
"941","3",221,"bRMS","f42887_e_003",NA,10,0.3,"180",0,2,5.59329533576965,1,0,1
"942","3",222,"bRMS","f42887_e_018",NA,9,0.9,"180",0,1,0.826277732849121,1,0,1
"943","3",223,"bRMS","f42887_e_003",NA,10,0.465553672174608,"0",0,2,1.22433114051819,1,0,1
"944","3",224,"bRMS","f42887_e_023",NA,9,0.9,"180",0,1,0.798540115356445,1,0,1
"945","3",225,"bRMS","f42887_e_017",NA,10,0.373719281884655,"0",0,2,1.18333864212036,1,0,1
"946","3",226,"bRMS","f42887_e_021",NA,10,0.9,"0",0,2,0.808007717132568,1,0,1
"947","3",227,"bRMS","f42887_e_011",NA,10,0.373719281884655,"180",0,2,1.68623328208923,1,0,1
"948","3",228,"bRMS","f42887_e_023",NA,10,0.373719281884655,"180",0,2,1.22573232650757,1,0,1
"949","3",229,"bRMS","f42887_e_022",NA,9,0.9,"0",0,1,0.855188131332397,1,0,1
"950","3",230,"bRMS","f42887_e_015",NA,9,0.465553672174608,"0",0,1,0.973315238952637,1,0,1
"951","3",231,"bRMS","f42887_e_022",NA,9,0.465553672174608,"0",0,1,0.871421337127686,1,0,1
"952","3",232,"bRMS","f42887_e_012",NA,10,0.722467405584208,"180",0,2,1.01350331306458,1,0,1
"953","3",233,"bRMS","f42887_e_024",NA,9,0.722467405584208,"180",0,1,0.755637407302856,1,0,1
"954","3",234,"bRMS","f42887_e_016",NA,9,0.373719281884655,"0",0,1,1.37378406524658,1,0,1
"955","3",235,"bRMS","f42887_e_012",NA,10,0.373719281884655,"0",0,2,1.11183738708496,1,0,1
"956","3",236,"bRMS","f42887_e_026",NA,10,0.722467405584208,"180",0,2,0.809961557388306,1,0,1
"957","3",237,"bRMS","f42887_e_004",NA,10,0.579954613479529,"180",0,2,1.0160813331604,1,0,1
"958","3",238,"bRMS","f42887_e_023",NA,9,0.9,"0",0,1,0.718307733535767,1,0,1
"959","3",239,"bRMS","f42887_e_019",NA,10,0.9,"0",0,2,0.664391756057739,1,0,1
"960","3",240,"bRMS","f42887_e_006",NA,9,0.465553672174608,"0",0,1,0.726511001586914,1,0,1
"961","3",241,"bRMS","f42887_e_012",NA,9,0.9,"180",0,1,1.17661142349243,1,0,1
"962","3",242,"bRMS","f42887_e_017",NA,10,0.579954613479529,"0",0,2,1.15472936630249,1,0,1
"963","3",243,"bRMS","f42887_e_006",NA,10,0.579954613479529,"180",0,2,0.884883642196655,1,0,1
"964","3",244,"bRMS","f42887_e_020",NA,10,0.3,"0",0,2,2.43561291694641,1,0,1
"965","3",245,"bRMS","f42887_e_011",NA,10,0.579954613479529,"0",0,2,0.785187721252441,1,0,1
"966","3",246,"bRMS","f42887_e_028",NA,10,0.465553672174608,"0",0,2,0.787310123443604,1,0,1
"967","3",247,"bRMS","f42887_e_020",NA,9,0.722467405584208,"180",0,1,0.837350606918335,1,0,1
"968","3",248,"bRMS","f42887_e_000",NA,9,0.722467405584208,"180",0,1,0.731516361236572,1,0,1
"969","3",249,"bRMS","f42887_e_024",NA,9,0.465553672174608,"180",0,1,0.757639408111572,1,0,1
"970","3",250,"bRMS","f42887_e_015",NA,10,0.3,"0",0,2,0.887736558914185,1,0,1
"971","3",251,"bRMS","f42887_e_003",NA,10,0.373719281884655,"180",0,2,1.19785475730896,1,0,1
"972","3",252,"bRMS","f42887_e_004",NA,10,0.3,"0",0,2,3.95069694519043,1,0,1
"973","3",253,"bRMS","f42887_e_019",NA,10,0.722467405584208,"0",0,2,0.896958589553833,1,0,1
"974","3",254,"bRMS","f42887_e_023",NA,10,0.722467405584208,"0",0,2,0.663056135177612,1,0,1
"975","3",255,"bRMS","f42887_e_018",NA,10,0.3,"180",0,2,9.79729461669922,1,0,1
"976","3",256,"bRMS","f42887_e_027",NA,9,0.373719281884655,"180",0,1,3.27913594245911,1,0,1
"977","3",257,"bRMS","f42887_e_014",NA,9,0.465553672174608,"0",0,1,0.957366943359375,1,0,1
"978","3",258,"bRMS","f42887_e_012",NA,10,0.579954613479529,"0",0,2,0.895474195480347,1,0,1
"979","3",259,"bRMS","f42887_e_005",NA,10,0.722467405584208,"0",0,2,0.971598625183105,1,0,1
"980","3",260,"bRMS","f42887_e_011",NA,9,0.373719281884655,"0",0,1,1.41371870040894,1,0,1
"981","3",261,"bRMS","f42887_e_013",NA,10,0.9,"0",0,2,0.699785470962524,1,0,1
"982","3",262,"bRMS","f42887_e_028",NA,10,0.3,"0",0,2,1.06591558456421,1,0,1
"983","3",263,"bRMS","f42887_e_021",NA,9,0.722467405584208,"180",0,1,0.872104406356812,1,0,1
"984","3",264,"bRMS","f42887_e_002",NA,9,0.373719281884655,"180",0,1,1.56489634513855,1,0,1
"985","3",265,"bRMS","f42887_e_002",NA,10,0.3,"180",0,2,1.97438740730286,1,0,1
"986","3",266,"bRMS","f42887_e_029",NA,10,0.465553672174608,"0",0,2,1.15255117416382,1,0,1
"987","3",267,"bRMS","f42887_e_002",NA,9,0.9,"0",0,1,0.666614770889282,1,0,1
"988","3",268,"bRMS","f42887_e_005",NA,10,0.373719281884655,"180",0,2,1.28810548782349,1,0,1
"989","3",269,"bRMS","f42887_e_010",NA,10,0.579954613479529,"180",0,2,0.702751398086548,1,0,1
"990","3",270,"bRMS","f42887_e_024",NA,9,0.722467405584208,"0",0,1,0.724277973175049,1,0,1
"991","3",271,"bRMS","f42887_e_017",NA,10,0.579954613479529,"180",0,2,1.22641539573669,1,0,1
"992","3",272,"bRMS","f42887_e_026",NA,10,0.722467405584208,"0",0,2,0.664596557617188,1,0,1
"993","3",273,"bRMS","f42887_e_018",NA,9,0.722467405584208,"180",0,1,0.694707155227661,1,0,1
"994","3",274,"bRMS","f42887_e_027",NA,9,0.722467405584208,"180",0,1,0.740743398666382,1,0,1
"995","3",275,"bRMS","f42887_e_022",NA,10,0.722467405584208,"0",0,2,0.63091516494751,1,0,1
"996","3",276,"bRMS","f42887_e_009",NA,9,0.722467405584208,"0",0,1,0.652952194213867,1,0,1
"997","3",277,"bRMS","f42887_e_016",NA,10,0.465553672174608,"0",0,2,0.651035785675049,1,0,1
"998","3",278,"bRMS","f42887_e_016",NA,10,0.579954613479529,"180",0,2,0.633147001266479,1,0,1
"999","3",279,"bRMS","f42887_e_026",NA,9,0.579954613479529,"180",0,1,0.703262567520142,1,0,1
"1000","3",280,"bRMS","f42887_e_027",NA,10,0.9,"180",0,2,0.636704921722412,1,0,1
"1001","3",281,"bRMS","f42887_e_025",NA,9,0.9,"0",0,1,0.64278507232666,1,0,1
"1002","3",282,"bRMS","f42887_e_029",NA,9,0.9,"180",0,1,0.608880758285522,1,0,1
"1003","3",283,"bRMS","f42887_e_016",NA,9,0.3,"0",0,1,1.25509023666382,1,0,1
"1004","3",284,"bRMS","f42887_e_027",NA,9,0.465553672174608,"180",0,1,1.15721154212952,1,0,1
"1005","3",285,"bRMS","f42887_e_023",NA,10,0.3,"180",0,2,2.79939675331116,1,0,1
"1006","3",286,"bRMS","f42887_e_000",NA,10,0.9,"0",0,2,0.640140533447266,1,0,1
"1007","3",287,"bRMS","f42887_e_020",NA,10,0.722467405584208,"0",0,2,0.662359476089478,1,0,1
"1008","3",288,"bRMS","f42887_e_008",NA,9,0.579954613479529,"180",0,1,1.01236271858215,1,0,1
"1009","3",289,"bRMS","f42887_e_006",NA,10,0.3,"180",0,2,1.53849411010742,1,0,1
"1010","3",290,"bRMS","f42887_e_010",NA,10,0.722467405584208,"180",0,2,0.980732202529907,1,0,1
"1011","3",291,"bRMS","f42887_e_017",NA,9,0.722467405584208,"0",0,1,0.726804733276367,1,0,1
"1012","3",292,"bRMS","f42887_e_023",NA,9,0.465553672174608,"180",0,1,0.816891670227051,1,0,1
"1013","3",293,"bRMS","f42887_e_018",NA,10,0.373719281884655,"0",0,2,1.87906169891357,1,0,1
"1014","3",294,"bRMS","f42887_e_001",NA,10,0.465553672174608,"0",0,2,1.15720844268799,1,0,1
"1015","3",295,"bRMS","f42887_e_025",NA,9,0.3,"0",0,1,1.87132716178894,1,0,1
"1016","3",296,"bRMS","f42887_e_014",NA,10,0.9,"180",0,2,0.685542583465576,1,0,1
"1017","3",297,"bRMS","f42887_e_021",NA,9,0.722467405584208,"0",0,1,0.715575456619263,1,0,1
"1018","3",298,"bRMS","f42887_e_004",NA,10,0.722467405584208,"0",0,2,0.59775185585022,1,0,1
"1019","3",299,"bRMS","f42887_e_002",NA,10,0.465553672174608,"0",0,2,0.695849180221558,1,0,1
"1020","3",300,"bRMS","f42887_e_020",NA,10,0.3,"180",0,2,1.06995439529419,1,0,1
"1021","3",301,"bRMS","f42887_e_013",NA,10,0.373719281884655,"0",0,2,1.82809233665466,1,0,1
"1022","3",302,"bRMS","f42887_e_011",NA,9,0.465553672174608,"180",0,1,1.50615549087524,1,0,1
"1023","3",303,"bRMS","f42887_e_011",NA,9,0.722467405584208,"0",0,1,0.716299295425415,1,0,1
"1024","3",304,"bRMS","f42887_e_015",NA,9,0.373719281884655,"180",0,1,0.990518093109131,1,0,1
"1025","3",305,"bRMS","f42887_e_001",NA,9,0.3,"180",0,1,8.44665002822876,1,0,1
"1026","3",306,"bRMS","f42887_e_008",NA,9,0.3,"180",0,1,3.96522068977356,1,0,1
"1027","3",307,"bRMS","f42887_e_021",NA,10,0.465553672174608,"180",0,2,1.74340105056763,1,0,1
"1028","3",308,"bRMS","f42887_e_007",NA,9,0.579954613479529,"180",0,1,1.47362399101257,1,0,1
"1029","3",309,"bRMS","f42887_e_009",NA,10,0.465553672174608,"0",0,2,1.08778142929077,1,0,1
"1030","3",310,"bRMS","f42887_e_029",NA,9,0.3,"180",0,1,1.54114484786987,1,0,1
"1031","3",311,"bRMS","f42887_e_011",NA,9,0.9,"180",0,1,0.663370132446289,1,0,1
"1032","3",312,"bRMS","f42887_e_026",NA,9,0.9,"180",0,1,0.693476915359497,1,0,1
"1033","3",313,"bRMS","f42887_e_013",NA,10,0.465553672174608,"180",0,2,1.15556025505066,1,0,1
"1034","3",314,"bRMS","f42887_e_028",NA,10,0.722467405584208,"0",0,2,0.709624290466309,1,0,1
"1035","3",315,"bRMS","f42887_e_021",NA,9,0.3,"0",0,1,0.815852403640747,1,0,1
"1036","3",316,"bRMS","f42887_e_015",NA,9,0.465553672174608,"180",0,1,0.838290929794312,1,0,1
"1037","3",317,"bRMS","f42887_e_011",NA,9,0.465553672174608,"0",0,1,0.780077695846558,1,0,1
"1038","3",318,"bRMS","f42887_e_009",NA,10,0.579954613479529,"0",0,2,0.750110149383545,1,0,1
"1039","3",319,"bRMS","f42887_e_001",NA,9,0.373719281884655,"180",0,1,1.36028504371643,1,0,1
"1040","3",320,"bRMS","f42887_e_025",NA,10,0.9,"180",0,2,0.658416986465454,1,0,1
"1041","3",321,"bRMS","f42887_e_019",NA,9,0.722467405584208,"180",0,1,0.784516096115112,1,0,1
"1042","3",322,"bRMS","f42887_e_028",NA,9,0.373719281884655,"180",0,1,1.53654336929321,1,0,1
"1043","3",323,"bRMS","f42887_e_028",NA,9,0.373719281884655,"0",0,1,0.922741413116455,1,0,1
"1044","3",324,"bRMS","f42887_e_002",NA,10,0.3,"0",0,2,2.60495448112488,1,0,1
"1045","3",325,"bRMS","f42887_e_009",NA,10,0.465553672174608,"180",0,2,1.15508198738098,1,0,1
"1046","3",326,"bRMS","f42887_e_027",NA,10,0.373719281884655,"0",0,2,1.38125681877136,1,0,1
"1047","3",327,"bRMS","f42887_e_006",NA,9,0.373719281884655,"0",0,1,1.45536065101624,1,0,1
"1048","3",328,"bRMS","f42887_e_016",NA,9,0.722467405584208,"180",0,1,0.853537559509277,1,0,1
"1049","3",329,"bRMS","f42887_e_027",NA,9,0.3,"0",0,2,0.699617385864258,0,0,1
"1050","3",330,"bRMS","f42887_e_010",NA,9,0.3,"180",0,1,1.08977699279785,1,0,1
"1051","3",331,"bRMS","f42887_e_013",NA,9,0.3,"180",0,1,2.04656577110291,1,0,1
"1052","3",332,"bRMS","f42887_e_004",NA,10,0.373719281884655,"0",0,2,1.33270311355591,1,0,1
"1053","3",333,"bRMS","f42887_e_014",NA,9,0.579954613479529,"0",0,1,0.670834064483643,1,0,1
"1054","3",334,"bRMS","f42887_e_028",NA,9,0.579954613479529,"180",0,1,0.908220291137695,1,0,1
"1055","3",335,"bRMS","f42887_e_003",NA,10,0.3,"0",0,2,2.20635938644409,1,0,1
"1056","3",336,"bRMS","f42887_e_010",NA,9,0.9,"180",0,1,0.764595508575439,1,0,1
"1057","3",337,"bRMS","f42887_e_024",NA,10,0.9,"0",0,2,0.782737493515015,1,0,1
"1058","3",338,"bRMS","f42887_e_007",NA,9,0.373719281884655,"0",0,1,1.64877700805664,1,0,1
"1059","3",339,"bRMS","f42887_e_011",NA,10,0.3,"180",0,2,3.03831505775452,1,0,1
"1060","3",340,"bRMS","f42887_e_025",NA,10,0.373719281884655,"180",0,2,1.41249704360962,1,0,1
"1061","3",341,"bRMS","f42887_e_029",NA,10,0.722467405584208,"180",0,2,1.08274173736572,1,0,1
"1062","3",342,"bRMS","f42887_e_016",NA,9,0.579954613479529,"0",0,1,0.696861982345581,1,0,1
"1063","3",343,"bRMS","f42887_e_009",NA,9,0.3,"0",0,1,1.70243692398071,1,0,1
"1064","3",344,"bRMS","f42887_e_001",NA,9,0.465553672174608,"180",0,1,1.0517840385437,1,0,1
"1065","3",345,"bRMS","f42887_e_013",NA,9,0.9,"180",0,1,0.625910043716431,1,0,1
"1066","3",346,"bRMS","f42887_e_006",NA,10,0.9,"180",0,2,0.943936109542847,1,0,1
"1067","3",347,"bRMS","f42887_e_012",NA,9,0.465553672174608,"0",0,1,0.738160371780396,1,0,1
"1068","3",348,"bRMS","f42887_e_028",NA,9,0.3,"180",0,1,1.42826628684998,1,0,1
"1069","3",349,"bRMS","f42887_e_029",NA,9,0.722467405584208,"0",0,1,0.618409156799316,1,0,1
"1070","3",350,"bRMS","f42887_e_004",NA,9,0.3,"180",0,1,0.784504652023315,1,0,1
"1071","3",351,"bRMS","f42887_e_023",NA,10,0.722467405584208,"180",0,2,0.802550792694092,1,0,1
"1072","3",352,"bRMS","f42887_e_023",NA,9,0.3,"0",0,1,1.30000996589661,1,0,1
"1073","3",353,"bRMS","f42887_e_025",NA,9,0.3,"180",0,1,7.56224370002747,1,0,1
"1074","3",354,"bRMS","f42887_e_017",NA,10,0.373719281884655,"180",0,2,6.38874101638794,1,0,1
"1075","3",355,"bRMS","f42887_e_023",NA,10,0.579954613479529,"180",0,2,1.70303106307983,1,0,1
"1076","3",356,"bRMS","f42887_e_001",NA,10,0.9,"180",0,2,0.789265155792236,1,0,1
"1077","3",357,"bRMS","f42887_e_017",NA,10,0.9,"180",0,2,0.775372982025146,1,0,1
"1078","3",358,"bRMS","f42887_e_021",NA,9,0.373719281884655,"0",0,1,1.10541439056396,1,0,1
"1079","3",359,"bRMS","f42887_e_006",NA,10,0.9,"0",0,2,0.731610298156738,1,0,1
"1080","3",360,"bRMS","f42887_e_023",NA,9,0.579954613479529,"0",0,1,0.701666831970215,1,0,1
"1081","4",1,"bRMS","f42887_e_027",NA,10,0.9,"180",0,2,0.943384647369385,1,0,0
"1082","4",2,"bRMS","f42887_e_008",NA,9,0.3,"0",0,1,1.04149746894836,1,0,0
"1083","4",3,"bRMS","f42887_e_000",NA,10,0.722467405584208,"0",0,2,0.959685564041138,1,0,0
"1084","4",4,"bRMS","f42887_e_010",NA,9,0.9,"0",0,1,0.673839569091797,1,0,0
"1085","4",5,"bRMS","f42887_e_014",NA,9,0.373719281884655,"180",0,1,8.62396097183228,1,0,0
"1086","4",6,"bRMS","f42887_e_002",NA,9,0.9,"180",0,1,0.822493076324463,1,0,0
"1087","4",7,"bRMS","f42887_e_001",NA,9,0.3,"180",0,NA,NA,-1,0,0
"1088","4",8,"bRMS","f42887_e_019",NA,10,0.722467405584208,"0",0,2,1.29925727844238,1,0,0
"1089","4",9,"bRMS","f42887_e_017",NA,10,0.3,"180",0,NA,NA,-1,0,0
"1090","4",10,"bRMS","f42887_e_020",NA,10,0.3,"180",0,2,5.91129660606384,1,0,0
"1091","4",11,"bRMS","f42887_e_028",NA,9,0.722467405584208,"180",0,1,0.833641529083252,1,0,0
"1092","4",12,"bRMS","f42887_e_008",NA,10,0.579954613479529,"0",0,2,0.78383731842041,1,0,0
"1093","4",13,"bRMS","f42887_e_002",NA,10,0.373719281884655,"0",0,2,9.62606120109558,1,0,0
"1094","4",14,"bRMS","f42887_e_020",NA,9,0.373719281884655,"180",0,1,5.5286021232605,1,0,0
"1095","4",15,"bRMS","f42887_e_011",NA,9,0.465553672174608,"0",0,1,9.22703433036804,1,0,0
"1096","4",16,"bRMS","f42887_e_014",NA,9,0.579954613479529,"180",0,1,0.92950963973999,1,0,0
"1097","4",17,"bRMS","f42887_e_028",NA,9,0.373719281884655,"180",0,1,9.57975912094116,1,0,0
"1098","4",18,"bRMS","f42887_e_012",NA,10,0.722467405584208,"180",0,2,0.982250928878784,1,0,0
"1099","4",19,"bRMS","f42887_e_019",NA,9,0.9,"180",0,1,0.73627495765686,1,0,0
"1100","4",20,"bRMS","f42887_e_027",NA,9,0.3,"0",0,1,3.91440320014954,1,0,0
"1101","4",21,"bRMS","f42887_e_024",NA,10,0.3,"180",0,2,9.79687476158142,1,0,0
"1102","4",22,"bRMS","f42887_e_017",NA,10,0.3,"0",0,2,9.77545285224915,1,0,0
"1103","4",23,"bRMS","f42887_e_026",NA,9,0.722467405584208,"0",0,1,0.889983177185059,1,0,0
"1104","4",24,"bRMS","f42887_e_026",NA,9,0.722467405584208,"180",0,1,0.904040336608887,1,0,0
"1105","4",25,"bRMS","f42887_e_004",NA,10,0.9,"180",0,2,0.73827338218689,1,0,0
"1106","4",26,"bRMS","f42887_e_022",NA,10,0.465553672174608,"180",0,2,9.25245022773743,1,0,0
"1107","4",27,"bRMS","f42887_e_008",NA,9,0.373719281884655,"0",0,1,9.19504189491272,1,0,0
"1108","4",28,"bRMS","f42887_e_005",NA,9,0.465553672174608,"180",0,1,9.53352212905884,1,0,0
"1109","4",29,"bRMS","f42887_e_027",NA,9,0.3,"180",0,2,6.35218715667725,0,0,0
"1110","4",30,"bRMS","f42887_e_018",NA,10,0.373719281884655,"0",0,2,9.63533520698547,1,0,0
"1111","4",31,"bRMS","f42887_e_018",NA,9,0.9,"0",0,1,0.905069828033447,1,0,0
"1112","4",32,"bRMS","f42887_e_029",NA,9,0.465553672174608,"0",0,1,1.49928021430969,1,0,0
"1113","4",33,"bRMS","f42887_e_014",NA,9,0.579954613479529,"0",0,1,1.08942580223083,1,0,0
"1114","4",34,"bRMS","f42887_e_001",NA,9,0.722467405584208,"0",0,1,0.959531307220459,1,0,0
"1115","4",35,"bRMS","f42887_e_011",NA,10,0.722467405584208,"0",0,2,1.04157114028931,1,0,0
"1116","4",36,"bRMS","f42887_e_020",NA,9,0.579954613479529,"180",0,1,1.78379702568054,1,0,0
"1117","4",37,"bRMS","f42887_e_026",NA,9,0.9,"180",0,1,0.841867446899414,1,0,0
"1118","4",38,"bRMS","f42887_e_011",NA,10,0.373719281884655,"0",0,2,9.8641791343689,1,0,0
"1119","4",39,"bRMS","f42887_e_026",NA,10,0.465553672174608,"0",0,2,9.21478748321533,1,0,0
"1120","4",40,"bRMS","f42887_e_023",NA,10,0.9,"180",0,2,0.885267734527588,1,0,0
"1121","4",41,"bRMS","f42887_e_016",NA,10,0.373719281884655,"0",0,2,9.41940951347351,1,0,0
"1122","4",42,"bRMS","f42887_e_019",NA,10,0.722467405584208,"180",0,2,0.809919834136963,1,0,0
"1123","4",43,"bRMS","f42887_e_005",NA,10,0.373719281884655,"180",0,2,9.48821330070496,1,0,0
"1124","4",44,"bRMS","f42887_e_019",NA,9,0.373719281884655,"0",0,1,9.62279582023621,1,0,0
"1125","4",45,"bRMS","f42887_e_018",NA,9,0.722467405584208,"180",0,1,0.949237108230591,1,0,0
"1126","4",46,"bRMS","f42887_e_010",NA,9,0.465553672174608,"180",0,1,9.2875120639801,1,0,0
"1127","4",47,"bRMS","f42887_e_023",NA,10,0.579954613479529,"180",0,2,8.15812945365906,1,0,0
"1128","4",48,"bRMS","f42887_e_027",NA,10,0.722467405584208,"180",0,2,0.92848801612854,1,0,0
"1129","4",49,"bRMS","f42887_e_029",NA,10,0.373719281884655,"0",0,2,9.67479228973389,1,0,0
"1130","4",50,"bRMS","f42887_e_017",NA,9,0.465553672174608,"180",0,1,8.88139581680298,1,0,0
"1131","4",51,"bRMS","f42887_e_028",NA,10,0.465553672174608,"180",0,2,4.30379962921143,1,0,0
"1132","4",52,"bRMS","f42887_e_029",NA,10,0.9,"0",0,2,0.894156932830811,1,0,0
"1133","4",53,"bRMS","f42887_e_021",NA,10,0.579954613479529,"0",0,2,1.18821811676025,1,0,0
"1134","4",54,"bRMS","f42887_e_007",NA,10,0.9,"0",0,2,0.910323143005371,1,0,0
"1135","4",55,"bRMS","f42887_e_027",NA,9,0.579954613479529,"0",0,1,5.30499362945557,1,0,0
"1136","4",56,"bRMS","f42887_e_026",NA,10,0.373719281884655,"0",0,2,7.66691851615906,1,0,0
"1137","4",57,"bRMS","f42887_e_013",NA,9,0.9,"0",0,1,0.86541748046875,1,0,0
"1138","4",58,"bRMS","f42887_e_024",NA,10,0.465553672174608,"0",0,2,9.09560394287109,1,0,0
"1139","4",59,"bRMS","f42887_e_001",NA,9,0.465553672174608,"0",0,1,1.7260684967041,1,0,0
"1140","4",60,"bRMS","f42887_e_001",NA,9,0.579954613479529,"180",0,1,3.36824417114258,1,0,0
"1141","4",61,"bRMS","f42887_e_027",NA,9,0.579954613479529,"180",0,1,1.87448048591614,1,0,0
"1142","4",62,"bRMS","f42887_e_001",NA,9,0.373719281884655,"0",0,1,5.74463701248169,1,0,0
"1143","4",63,"bRMS","f42887_e_017",NA,9,0.373719281884655,"180",0,1,8.50705814361572,1,0,0
"1144","4",64,"bRMS","f42887_e_010",NA,10,0.9,"180",0,2,0.869560956954956,1,0,0
"1145","4",65,"bRMS","f42887_e_007",NA,9,0.579954613479529,"180",0,1,1.8677442073822,1,0,0
"1146","4",66,"bRMS","f42887_e_021",NA,9,0.465553672174608,"180",0,1,2.67391419410706,1,0,0
"1147","4",67,"bRMS","f42887_e_018",NA,10,0.579954613479529,"0",0,2,1.32812595367432,1,0,0
"1148","4",68,"bRMS","f42887_e_026",NA,10,0.579954613479529,"0",0,2,1.20217299461365,1,0,0
