"","Subject","Trial","Type","Stimulus","Eye","Location","Alpha","Orientation","fadeIn","Response","RT","Acc","Order"
"1","1",1,"bCFS","f42887_e_015",1,10,0.579954613479529,"0",1,2,1.0904476038686,1,1
"2","1",2,"bCFS","f42887_e_022",0,9,0.579954613479529,"180",1,1,1.01060710509955,1,1
"3","1",3,"bCFS","f42887_e_009",0,9,0.722467405584208,"180",1,1,0.900296242460172,1,1
"4","1",4,"bCFS","f42887_e_013",0,9,0.465553672174608,"0",1,1,1.14026732368802,1,1
"5","1",5,"bCFS","f42887_e_027",1,10,0.9,"0",1,2,0.786284007186623,1,1
"6","1",6,"bCFS","f42887_e_021",1,10,0.3,"180",1,2,3.18974990261631,1,1
"7","1",7,"bCFS","f42887_e_021",0,10,0.722467405584208,"0",1,2,1.05937434819316,1,1
"8","1",8,"bCFS","f42887_e_024",0,10,0.722467405584208,"180",1,2,3.26079581380327,1,1
"9","1",9,"bCFS","f42887_e_012",1,10,0.465553672174608,"0",1,2,1.35838659380897,1,1
"10","1",10,"bCFS","f42887_e_002",1,10,0.3,"0",1,2,1.04379651079034,1,1
"11","1",11,"bCFS","f42887_e_007",1,9,0.9,"180",1,1,1.09467617170776,1,1
"12","1",12,"bCFS","f42887_e_019",0,9,0.722467405584208,"0",1,1,0.833531006119301,1,1
"13","1",13,"bCFS","f42887_e_022",1,9,0.722467405584208,"0",1,1,0.846225729084836,1,1
"14","1",14,"bCFS","f42887_e_006",1,10,0.3,"180",1,2,8.6008792219618,1,1
"15","1",15,"bCFS","f42887_e_019",1,9,0.579954613479529,"0",1,1,1.04351162051717,1,1
"16","1",16,"bCFS","f42887_e_004",1,9,0.579954613479529,"180",1,1,1.25368350949793,1,1
"17","1",17,"bCFS","f42887_e_002",0,9,0.465553672174608,"0",1,1,1.0641174167431,1,1
"18","1",18,"bCFS","f42887_e_010",1,10,0.373719281884655,"180",1,2,2.26664570586581,1,1
"19","1",19,"bCFS","f42887_e_005",1,10,0.579954613479529,"0",1,2,1.01879987753273,1,1
"20","1",20,"bCFS","f42887_e_025",0,10,0.373719281884655,"0",1,2,2.51825699983783,1,1
"21","1",21,"bCFS","f42887_e_026",0,9,0.3,"180",1,1,3.38176563502748,1,1
"22","1",22,"bCFS","f42887_e_025",1,9,0.722467405584208,"180",1,1,1.86481917356286,1,1
"23","1",23,"bCFS","f42887_e_006",1,9,0.579954613479529,"0",1,1,1.1857545964649,1,1
"24","1",24,"bCFS","f42887_e_018",1,10,0.9,"0",1,2,0.741236199426567,1,1
"25","1",25,"bCFS","f42887_e_008",1,9,0.9,"180",1,1,1.18608186579695,1,1
"26","1",26,"bCFS","f42887_e_012",0,9,0.579954613479529,"180",1,1,1.27680689591216,1,1
"27","1",27,"bCFS","f42887_e_007",0,10,0.3,"180",1,NA,NA,-1,1
"28","1",28,"bCFS","f42887_e_012",0,9,0.722467405584208,"0",1,1,0.911530603663778,1,1
"29","1",29,"bCFS","f42887_e_016",1,9,0.465553672174608,"0",1,1,1.07089343226471,1,1
"30","1",30,"bCFS","f42887_e_007",1,10,0.3,"0",1,2,1.31806226061963,1,1
"31","1",31,"bCFS","f42887_e_010",1,10,0.373719281884655,"0",1,2,2.41928033440126,1,1
"32","1",32,"bCFS","f42887_e_024",0,10,0.465553672174608,"180",1,2,1.67737443714213,1,1
"33","1",33,"bCFS","f42887_e_019",1,9,0.465553672174608,"180",1,1,6.24343647915157,1,1
"34","1",34,"bCFS","f42887_e_003",1,9,0.579954613479529,"180",1,1,1.4927083139246,1,1
"35","1",35,"bCFS","f42887_e_020",0,10,0.465553672174608,"180",1,2,2.15682983642,1,1
"36","1",36,"bCFS","f42887_e_019",0,10,0.579954613479529,"180",1,2,1.3683098569345,1,1
"37","1",37,"bCFS","f42887_e_013",0,9,0.3,"0",1,1,1.64459961522152,1,1
"38","1",38,"bCFS","f42887_e_028",1,10,0.722467405584208,"0",1,2,0.926726513933318,1,1
"39","1",39,"bCFS","f42887_e_004",0,9,0.465553672174608,"0",1,1,0.925491471061832,1,1
"40","1",40,"bCFS","f42887_e_028",1,10,0.3,"180",1,2,1.25286460547431,1,1
"41","1",41,"bCFS","f42887_e_027",1,9,0.9,"180",1,1,1.03768909782775,1,1
"42","1",42,"bCFS","f42887_e_011",1,10,0.465553672174608,"180",1,2,1.15920755053594,1,1
"43","1",43,"bCFS","f42887_e_018",1,10,0.465553672174608,"180",1,2,1.01226023385425,1,1
"44","1",44,"bCFS","f42887_e_009",1,10,0.373719281884655,"0",1,2,1.12143781838677,1,1
"45","1",45,"bCFS","f42887_e_016",1,10,0.465553672174608,"180",1,2,1.33823216213204,1,1
"46","1",46,"bCFS","f42887_e_006",1,10,0.465553672174608,"0",1,2,1.04113546147892,1,1
"47","1",47,"bCFS","f42887_e_025",1,9,0.373719281884655,"180",1,1,1.11716073211755,1,1
"48","1",48,"bCFS","f42887_e_012",1,10,0.579954613479529,"0",1,2,0.771953964293061,1,1
"49","1",49,"bCFS","f42887_e_016",1,10,0.579954613479529,"180",1,2,1.0188822966611,1,1
"50","1",50,"bCFS","f42887_e_012",1,10,0.9,"0",1,2,0.878288636342404,1,1
"51","1",51,"bCFS","f42887_e_003",1,9,0.373719281884655,"0",1,1,2.82458982546086,1,1
"52","1",52,"bCFS","f42887_e_017",0,9,0.9,"180",1,1,0.931959662098961,1,1
"53","1",53,"bCFS","f42887_e_024",1,9,0.3,"180",1,1,2.21880560021964,1,1
"54","1",54,"bCFS","f42887_e_020",1,9,0.722467405584208,"180",1,1,1.19096535150675,1,1
"55","1",55,"bCFS","f42887_e_018",1,10,0.3,"180",1,2,1.06774284442872,1,1
"56","1",56,"bCFS","f42887_e_018",0,10,0.579954613479529,"180",1,2,0.956572191113082,1,1
"57","1",57,"bCFS","f42887_e_020",1,9,0.3,"180",1,1,1.8173659712993,1,1
"58","1",58,"bCFS","f42887_e_025",0,10,0.579954613479529,"180",1,2,1.22950889042295,1,1
"59","1",59,"bCFS","f42887_e_023",1,10,0.465553672174608,"180",1,2,3.02495300978626,1,1
"60","1",60,"bCFS","f42887_e_011",0,10,0.3,"0",1,2,1.57928914236436,1,1
"61","1",61,"bCFS","f42887_e_002",0,9,0.373719281884655,"0",1,1,1.43141025307523,1,1
"62","1",62,"bCFS","f42887_e_018",1,9,0.579954613479529,"0",1,1,1.18614149984569,1,1
"63","1",63,"bCFS","f42887_e_021",1,9,0.465553672174608,"180",1,1,1.18029845012825,1,1
"64","1",64,"bCFS","f42887_e_006",0,10,0.373719281884655,"0",1,2,1.39072576384206,1,1
"65","1",65,"bCFS","f42887_e_005",0,10,0.722467405584208,"180",1,2,1.13660946944037,1,1
"66","1",66,"bCFS","f42887_e_028",1,9,0.579954613479529,"0",1,1,0.959415184537647,1,1
"67","1",67,"bCFS","f42887_e_025",0,9,0.9,"180",1,1,0.813139724177745,1,1
"68","1",68,"bCFS","f42887_e_020",0,10,0.579954613479529,"180",1,2,1.13645955992979,1,1
"69","1",69,"bCFS","f42887_e_008",0,9,0.465553672174608,"180",1,1,1.28400317442174,1,1
"70","1",70,"bCFS","f42887_e_011",1,9,0.9,"0",1,1,0.876706189064862,1,1
"71","1",71,"bCFS","f42887_e_000",1,10,0.722467405584208,"180",1,2,0.916929915090805,1,1
"72","1",72,"bCFS","f42887_e_013",0,10,0.579954613479529,"0",1,2,1.2688340114928,1,1
"73","1",73,"bCFS","f42887_e_004",1,10,0.9,"0",1,2,0.684320348113033,1,1
"74","1",74,"bCFS","f42887_e_007",1,9,0.579954613479529,"0",1,1,1.00005548576519,1,1
"75","1",75,"bCFS","f42887_e_014",1,10,0.9,"0",1,2,0.725326197381946,1,1
"76","1",76,"bCFS","f42887_e_022",1,10,0.579954613479529,"0",1,2,0.996699110351983,1,1
"77","1",77,"bCFS","f42887_e_001",1,10,0.3,"180",1,2,1.13779924764822,1,1
"78","1",78,"bCFS","f42887_e_000",1,10,0.465553672174608,"180",1,2,1.9595467441286,1,1
"79","1",79,"bCFS","f42887_e_024",0,9,0.465553672174608,"0",1,1,1.23589746147081,1,1
"80","1",80,"bCFS","f42887_e_025",1,10,0.722467405584208,"0",1,2,0.716610918772858,1,1
"81","1",81,"bCFS","f42887_e_027",0,10,0.722467405584208,"180",1,2,1.40211227433429,1,1
"82","1",82,"bCFS","f42887_e_022",0,10,0.465553672174608,"0",1,2,2.0221862151775,1,1
"83","1",83,"bCFS","f42887_e_000",1,9,0.3,"0",1,1,4.59236517043246,1,1
"84","1",84,"bCFS","f42887_e_026",1,9,0.465553672174608,"180",1,1,1.50678052490002,1,1
"85","1",85,"bCFS","f42887_e_017",0,9,0.373719281884655,"180",1,1,1.56357445810681,1,1
"86","1",86,"bCFS","f42887_e_003",0,10,0.465553672174608,"180",1,2,0.993092262659047,1,1
"87","1",87,"bCFS","f42887_e_005",1,10,0.373719281884655,"180",1,2,2.26979722674696,1,1
"88","1",88,"bCFS","f42887_e_026",1,10,0.722467405584208,"180",1,2,1.13409646354739,1,1
"89","1",89,"bCFS","f42887_e_017",0,10,0.465553672174608,"180",1,2,2.04478149713395,1,1
"90","1",90,"bCFS","f42887_e_014",1,9,0.373719281884655,"180",1,1,1.75837222488917,1,1
"91","1",91,"bCFS","f42887_e_018",0,9,0.722467405584208,"0",1,1,0.710998642614868,1,1
"92","1",92,"bCFS","f42887_e_005",0,9,0.465553672174608,"0",1,1,0.558456074690184,1,1
"93","1",93,"bCFS","f42887_e_007",1,10,0.465553672174608,"180",1,2,1.02054343088093,1,1
"94","1",94,"bCFS","f42887_e_001",0,10,0.579954613479529,"180",1,2,1.1908827023035,1,1
"95","1",95,"bCFS","f42887_e_029",0,10,0.3,"180",1,2,6.49137530114422,1,1
"96","1",96,"bCFS","f42887_e_016",0,9,0.722467405584208,"180",1,1,1.10122864796722,1,1
"97","1",97,"bCFS","f42887_e_010",1,9,0.9,"180",1,1,1.43809957618942,1,1
"98","1",98,"bCFS","f42887_e_022",1,9,0.373719281884655,"0",1,1,1.40684810858511,1,1
"99","1",99,"bCFS","f42887_e_026",0,10,0.373719281884655,"180",1,2,5.9955402662963,1,1
"100","1",100,"bCFS","f42887_e_019",0,9,0.9,"180",1,1,0.702750198393915,1,1
"101","1",101,"bCFS","f42887_e_020",1,9,0.9,"0",1,1,1.06352391807377,1,1
"102","1",102,"bCFS","f42887_e_016",0,10,0.3,"0",1,2,0.729877369320093,1,1
"103","1",103,"bCFS","f42887_e_015",0,10,0.722467405584208,"180",1,2,1.25565690335861,1,1
"104","1",104,"bCFS","f42887_e_009",0,10,0.722467405584208,"0",1,2,0.971145759205683,1,1
"105","1",105,"bCFS","f42887_e_027",0,9,0.3,"180",1,1,1.17484767199676,1,1
"106","1",106,"bCFS","f42887_e_008",1,9,0.465553672174608,"0",1,1,1.61940051082274,1,1
"107","1",107,"bCFS","f42887_e_023",0,9,0.9,"0",1,1,0.816242272005184,1,1
"108","1",108,"bCFS","f42887_e_024",1,10,0.579954613479529,"0",1,2,0.86843659578517,1,1
"109","1",109,"bCFS","f42887_e_024",1,10,0.373719281884655,"0",1,2,2.1892305065976,1,1
"110","1",110,"bCFS","f42887_e_025",0,9,0.9,"0",1,1,0.784658950775338,1,1
"111","1",111,"bCFS","f42887_e_021",0,9,0.579954613479529,"180",1,1,1.09357268842723,1,1
"112","1",112,"bCFS","f42887_e_015",0,9,0.373719281884655,"180",1,1,1.31101954286351,1,1
"113","1",113,"bCFS","f42887_e_012",1,9,0.3,"180",1,1,6.03962237067935,1,1
"114","1",114,"bCFS","f42887_e_025",1,9,0.3,"0",1,1,1.98746785689218,1,1
"115","1",115,"bCFS","f42887_e_028",0,10,0.373719281884655,"180",1,2,4.23970522522905,1,1
"116","1",116,"bCFS","f42887_e_018",0,9,0.3,"0",1,1,1.18477925160187,1,1
"117","1",117,"bCFS","f42887_e_003",1,10,0.9,"0",1,2,0.798821667285665,1,1
"118","1",118,"bCFS","f42887_e_014",1,9,0.579954613479529,"180",1,1,1.19452805326,1,1
"119","1",119,"bCFS","f42887_e_005",0,9,0.465553672174608,"180",1,1,1.32712703979996,1,1
"120","1",120,"bCFS","f42887_e_000",0,9,0.722467405584208,"0",1,1,1.35924468579651,1,1
"121","1",121,"bCFS","f42887_e_020",1,10,0.9,"180",1,2,0.574821092528509,1,1
"122","1",122,"bCFS","f42887_e_029",0,10,0.465553672174608,"180",1,1,0.835522438883345,0,1
"123","1",123,"bCFS","f42887_e_008",0,10,0.579954613479529,"180",1,2,1.47104296855468,1,1
"124","1",124,"bCFS","f42887_e_001",0,9,0.9,"180",1,1,1.08787519399993,1,1
"125","1",125,"bCFS","f42887_e_029",0,9,0.722467405584208,"180",1,1,1.16059281393427,1,1
"126","1",126,"bCFS","f42887_e_017",0,9,0.3,"180",1,1,3.24683938156522,1,1
"127","1",127,"bCFS","f42887_e_002",1,10,0.722467405584208,"180",1,2,0.738214061026156,1,1
"128","1",128,"bCFS","f42887_e_020",0,10,0.465553672174608,"0",1,2,1.29573779229213,1,1
"129","1",129,"bCFS","f42887_e_022",0,10,0.9,"0",1,2,0.833214703272461,1,1
"130","1",130,"bCFS","f42887_e_006",1,10,0.3,"0",1,2,2.02056924517274,1,1
"131","1",131,"bCFS","f42887_e_025",0,10,0.579954613479529,"0",1,2,0.982142337101322,1,1
"132","1",132,"bCFS","f42887_e_028",0,10,0.465553672174608,"0",1,2,0.954945890640374,1,1
"133","1",133,"bCFS","f42887_e_017",0,10,0.9,"0",1,2,0.817867639430915,1,1
"134","1",134,"bCFS","f42887_e_027",1,10,0.3,"0",1,2,1.14132881986552,1,1
"135","1",135,"bCFS","f42887_e_002",0,9,0.373719281884655,"180",1,1,1.06595574890162,1,1
"136","1",136,"bCFS","f42887_e_026",0,10,0.3,"0",1,2,1.79704977858819,1,1
"137","1",137,"bCFS","f42887_e_007",1,10,0.722467405584208,"180",1,2,0.823716909460927,1,1
"138","1",138,"bCFS","f42887_e_029",1,9,0.9,"180",1,2,0.659816363535356,0,1
"139","1",139,"bCFS","f42887_e_015",1,10,0.722467405584208,"0",1,2,0.733951903503112,1,1
"140","1",140,"bCFS","f42887_e_010",0,9,0.579954613479529,"180",1,1,0.89937144952637,1,1
"141","1",141,"bCFS","f42887_e_020",0,9,0.579954613479529,"0",1,1,0.79546736424345,1,1
"142","1",142,"bCFS","f42887_e_014",0,9,0.3,"0",1,1,1.01640775196393,1,1
"143","1",143,"bCFS","f42887_e_005",0,9,0.722467405584208,"0",1,1,0.803740378696602,1,1
"144","1",144,"bCFS","f42887_e_003",0,10,0.373719281884655,"180",1,1,0.993149178510066,0,1
"145","1",145,"bCFS","f42887_e_003",1,9,0.465553672174608,"0",1,1,1.32462212030987,1,1
"146","1",146,"bCFS","f42887_e_003",0,9,0.722467405584208,"180",1,1,0.995436698107369,1,1
"147","1",147,"bCFS","f42887_e_029",0,10,0.722467405584208,"0",1,2,0.936335962338489,1,1
"148","1",148,"bCFS","f42887_e_005",0,10,0.3,"180",1,1,8.61972006743417,0,1
"149","1",149,"bCFS","f42887_e_005",0,10,0.579954613479529,"180",1,2,4.31963498546975,1,1
"150","1",150,"bCFS","f42887_e_013",1,10,0.3,"180",1,2,1.63729790242905,1,1
"151","1",151,"bCFS","f42887_e_025",0,10,0.3,"180",1,2,5.13608043193744,1,1
"152","1",152,"bCFS","f42887_e_004",1,10,0.465553672174608,"180",1,2,2.10840097828077,1,1
"153","1",153,"bCFS","f42887_e_010",0,9,0.465553672174608,"0",1,2,0.914678703373284,0,1
"154","1",154,"bCFS","f42887_e_009",0,10,0.373719281884655,"180",1,2,2.12541042040175,1,1
"155","1",155,"bCFS","f42887_e_023",1,10,0.722467405584208,"0",1,2,0.77289198728613,1,1
"156","1",156,"bCFS","f42887_e_021",1,10,0.9,"180",1,2,0.867709441356055,1,1
"157","1",157,"bCFS","f42887_e_013",0,9,0.373719281884655,"180",1,1,0.941096677835958,1,1
"158","1",158,"bCFS","f42887_e_001",1,9,0.579954613479529,"0",1,1,1.19531988065501,1,1
"159","1",159,"bCFS","f42887_e_016",0,9,0.3,"180",1,1,1.60139581884323,1,1
"160","1",160,"bCFS","f42887_e_002",1,10,0.9,"180",1,2,0.614985333635559,1,1
"161","1",161,"bCFS","f42887_e_018",0,9,0.9,"180",1,1,0.793276029402477,1,1
"162","1",162,"bCFS","f42887_e_013",1,9,0.9,"0",1,1,0.975923269543273,1,1
"163","1",163,"bCFS","f42887_e_008",1,9,0.722467405584208,"0",1,1,0.919341448963678,1,1
"164","1",164,"bCFS","f42887_e_026",0,10,0.579954613479529,"180",1,2,1.5993975437359,1,1
"165","1",165,"bCFS","f42887_e_012",1,9,0.465553672174608,"180",1,1,0.763568673215559,1,1
"166","1",166,"bCFS","f42887_e_000",1,10,0.579954613479529,"0",1,2,0.94505248501082,1,1
"167","1",167,"bCFS","f42887_e_014",0,9,0.579954613479529,"0",1,1,0.941702536187222,1,1
"168","1",168,"bCFS","f42887_e_006",1,10,0.373719281884655,"180",1,2,0.934168805770241,1,1
"169","1",169,"bCFS","f42887_e_015",1,10,0.465553672174608,"180",1,2,1.61272331731743,1,1
"170","1",170,"bCFS","f42887_e_018",0,10,0.465553672174608,"0",1,2,0.890203021215711,1,1
"171","1",171,"bCFS","f42887_e_009",0,9,0.9,"180",1,1,0.882947027712362,1,1
"172","1",172,"bCFS","f42887_e_001",0,10,0.465553672174608,"0",1,2,1.12579359159645,1,1
"173","1",173,"bCFS","f42887_e_023",0,10,0.722467405584208,"180",1,2,1.00460108321749,1,1
"174","1",174,"bCFS","f42887_e_019",1,9,0.722467405584208,"180",1,1,1.14605750075862,1,1
"175","1",175,"bCFS","f42887_e_016",0,9,0.373719281884655,"180",1,2,0.834857176556397,0,1
"176","1",176,"bCFS","f42887_e_019",0,9,0.373719281884655,"180",1,1,2.27685043809288,1,1
"177","1",177,"bCFS","f42887_e_017",0,9,0.3,"0",1,1,1.36513096668205,1,1
"178","1",178,"bCFS","f42887_e_008",1,9,0.3,"180",1,1,2.11672157811699,1,1
"179","1",179,"bCFS","f42887_e_015",1,10,0.3,"0",1,2,1.4687865505166,1,1
"180","1",180,"bCFS","f42887_e_001",1,9,0.722467405584208,"180",1,1,1.74824835671461,1,1
"181","1",181,"bCFS","f42887_e_004",1,9,0.3,"0",1,1,1.86588937817578,1,1
"182","1",182,"bCFS","f42887_e_023",0,10,0.579954613479529,"180",1,2,1.65873620642378,1,1
"183","1",183,"bCFS","f42887_e_020",1,10,0.3,"0",1,2,1.69889080604844,1,1
"184","1",184,"bCFS","f42887_e_003",0,10,0.722467405584208,"0",1,2,1.00771777035334,1,1
"185","1",185,"bCFS","f42887_e_006",0,10,0.579954613479529,"180",1,2,0.908541432916536,1,1
"186","1",186,"bCFS","f42887_e_006",1,10,0.722467405584208,"0",1,2,0.906869556762103,1,1
"187","1",187,"bCFS","f42887_e_020",0,10,0.373719281884655,"0",1,2,1.32477669505352,1,1
"188","1",188,"bCFS","f42887_e_021",0,9,0.373719281884655,"180",1,1,1.08163311129101,1,1
"189","1",189,"bCFS","f42887_e_028",0,10,0.465553672174608,"180",1,2,1.85764062293856,1,1
"190","1",190,"bCFS","f42887_e_011",0,10,0.465553672174608,"0",1,2,1.0925743284115,1,1
"191","1",191,"bCFS","f42887_e_011",0,10,0.579954613479529,"0",1,2,1.13995910724771,1,1
"192","1",192,"bCFS","f42887_e_016",0,9,0.9,"180",1,1,0.922845972530922,1,1
"193","1",193,"bCFS","f42887_e_029",1,9,0.373719281884655,"180",1,1,5.0734649090864,1,1
"194","1",194,"bCFS","f42887_e_029",0,10,0.465553672174608,"0",1,2,1.15392059667647,1,1
"195","1",195,"bCFS","f42887_e_017",1,9,0.579954613479529,"0",1,1,1.40809434801849,1,1
"196","1",196,"bCFS","f42887_e_004",0,10,0.722467405584208,"180",1,2,0.770860122494923,1,1
"197","1",197,"bCFS","f42887_e_011",0,9,0.3,"180",1,1,1.0079464477476,1,1
"198","1",198,"bCFS","f42887_e_029",0,10,0.579954613479529,"0",1,2,1.31460088727545,1,1
"199","1",199,"bCFS","f42887_e_000",1,10,0.9,"180",1,2,1.86799681975208,1,1
"200","1",200,"bCFS","f42887_e_010",1,9,0.9,"0",1,1,0.788754092929594,1,1
"201","1",201,"bCFS","f42887_e_012",0,9,0.722467405584208,"180",1,1,0.976862847614029,1,1
"202","1",202,"bCFS","f42887_e_009",1,10,0.465553672174608,"180",1,2,1.55600006558961,1,1
"203","1",203,"bCFS","f42887_e_023",0,9,0.9,"180",1,1,0.800593523048519,1,1
"204","1",204,"bCFS","f42887_e_007",1,10,0.722467405584208,"0",1,2,0.826687730290359,1,1
"205","1",205,"bCFS","f42887_e_007",1,10,0.579954613479529,"180",1,2,1.43740849956885,1,1
"206","1",206,"bCFS","f42887_e_015",0,9,0.465553672174608,"0",1,1,0.990315826566075,1,1
"207","1",207,"bCFS","f42887_e_021",1,10,0.722467405584208,"180",1,2,2.26838770413451,1,1
"208","1",208,"bCFS","f42887_e_001",1,9,0.3,"0",1,1,1.58256942369553,1,1
"209","1",209,"bCFS","f42887_e_021",1,9,0.579954613479529,"0",1,1,1.24354564562236,1,1
"210","1",210,"bCFS","f42887_e_017",0,9,0.465553672174608,"0",1,1,1.67151241547253,1,1
"211","1",211,"bCFS","f42887_e_002",0,9,0.579954613479529,"180",1,1,1.06370928336037,1,1
"212","1",212,"bCFS","f42887_e_000",0,9,0.579954613479529,"180",1,1,1.14379921662476,1,1
"213","1",213,"bCFS","f42887_e_009",1,9,0.9,"0",1,1,0.919609625336307,1,1
"214","1",214,"bCFS","f42887_e_009",1,9,0.3,"0",1,1,0.934145479603103,1,1
"215","1",215,"bCFS","f42887_e_006",0,10,0.465553672174608,"180",1,2,1.2928618312144,1,1
"216","1",216,"bCFS","f42887_e_007",1,9,0.465553672174608,"0",1,1,0.899324629785042,1,1
"217","1",217,"bCFS","f42887_e_017",1,10,0.722467405584208,"0",1,2,0.819159598155238,1,1
"218","1",218,"bCFS","f42887_e_020",1,9,0.373719281884655,"180",1,1,1.15801418375304,1,1
"219","1",219,"bCFS","f42887_e_023",1,9,0.373719281884655,"0",1,1,1.28401157184453,1,1
"220","1",220,"bCFS","f42887_e_006",0,10,0.722467405584208,"180",1,2,0.630271438423733,1,1
"221","1",221,"bCFS","f42887_e_025",0,10,0.465553672174608,"0",1,2,0.959039788733207,1,1
"222","1",222,"bCFS","f42887_e_022",0,10,0.722467405584208,"180",1,2,1.1011480949328,1,1
"223","1",223,"bCFS","f42887_e_024",0,9,0.722467405584208,"0",1,1,0.74208558297687,1,1
"224","1",224,"bCFS","f42887_e_013",0,9,0.465553672174608,"180",1,1,1.34084624809111,1,1
"225","1",225,"bCFS","f42887_e_018",0,9,0.373719281884655,"0",1,1,0.589077194654237,1,1
"226","1",226,"bCFS","f42887_e_017",1,10,0.373719281884655,"0",1,2,0.968998196618486,1,1
"227","1",227,"bCFS","f42887_e_021",0,9,0.373719281884655,"0",1,1,1.12781612591971,1,1
"228","1",228,"bCFS","f42887_e_008",1,9,0.373719281884655,"0",1,1,1.00683400768321,1,1
"229","1",229,"bCFS","f42887_e_026",0,10,0.9,"0",1,2,0.922002498275106,1,1
"230","1",230,"bCFS","f42887_e_026",0,9,0.373719281884655,"0",1,1,0.824882906876155,1,1
"231","1",231,"bCFS","f42887_e_026",1,9,0.465553672174608,"0",1,1,1.36386708030295,1,1
"232","1",232,"bCFS","f42887_e_009",1,9,0.465553672174608,"0",1,1,1.2163641279094,1,1
"233","1",233,"bCFS","f42887_e_027",0,9,0.465553672174608,"0",1,1,1.0765738208338,1,1
"234","1",234,"bCFS","f42887_e_011",0,9,0.373719281884655,"180",1,1,1.14083679321629,1,1
"235","1",235,"bCFS","f42887_e_021",0,10,0.9,"0",1,2,0.715470424636806,1,1
"236","1",236,"bCFS","f42887_e_022",0,9,0.3,"180",1,1,1.10633396872981,1,1
"237","1",237,"bCFS","f42887_e_001",0,9,0.722467405584208,"0",1,1,0.754475199659282,1,1
"238","1",238,"bCFS","f42887_e_011",1,10,0.579954613479529,"180",1,2,0.881989410740061,1,1
"239","1",239,"bCFS","f42887_e_028",1,10,0.9,"180",1,2,0.6973565661865,1,1
"240","1",240,"bCFS","f42887_e_024",1,10,0.9,"0",1,2,0.777641587163089,1,1
"241","1",241,"bCFS","f42887_e_026",1,10,0.722467405584208,"0",1,2,0.823611164163594,1,1
"242","1",242,"bCFS","f42887_e_007",1,9,0.373719281884655,"0",1,1,1.25230633250612,1,1
"243","1",243,"bCFS","f42887_e_027",1,10,0.373719281884655,"0",1,2,0.917296832534703,1,1
"244","1",244,"bCFS","f42887_e_010",1,9,0.722467405584208,"0",1,1,0.77057834237894,1,1
"245","1",245,"bCFS","f42887_e_013",0,10,0.722467405584208,"0",1,2,0.758790229830993,1,1
"246","1",246,"bCFS","f42887_e_014",1,10,0.722467405584208,"0",1,2,0.683807938044993,1,1
"247","1",247,"bCFS","f42887_e_012",1,9,0.373719281884655,"180",1,1,1.46894579049331,1,1
"248","1",248,"bCFS","f42887_e_022",0,10,0.9,"180",1,2,0.7658226031308,1,1
"249","1",249,"bCFS","f42887_e_016",0,9,0.373719281884655,"0",1,1,1.10793632100285,1,1
"250","1",250,"bCFS","f42887_e_018",0,9,0.373719281884655,"180",1,1,1.40406483015249,1,1
"251","1",251,"bCFS","f42887_e_005",0,9,0.3,"0",1,1,0.976766432782824,1,1
"252","1",252,"bCFS","f42887_e_014",1,9,0.722467405584208,"180",1,1,0.99850967565726,1,1
"253","1",253,"bCFS","f42887_e_015",1,9,0.9,"0",1,1,1.15447482644049,1,1
"254","1",254,"bCFS","f42887_e_029",1,9,0.373719281884655,"0",1,1,1.48201217707901,1,1
"255","1",255,"bCFS","f42887_e_007",0,9,0.9,"0",1,1,0.738004747538071,1,1
"256","1",256,"bCFS","f42887_e_004",1,10,0.3,"180",1,2,5.530148058544,1,1
"257","1",257,"bCFS","f42887_e_016",0,9,0.9,"0",1,1,0.808569828637701,1,1
"258","1",258,"bCFS","f42887_e_009",1,10,0.579954613479529,"180",1,2,1.92539972146733,1,1
"259","1",259,"bCFS","f42887_e_018",1,9,0.722467405584208,"180",1,1,0.772164210826304,1,1
"260","1",260,"bCFS","f42887_e_006",0,10,0.9,"0",1,2,0.67427392281752,1,1
"261","1",261,"bCFS","f42887_e_008",1,10,0.579954613479529,"0",1,2,0.90733719885975,1,1
"262","1",262,"bCFS","f42887_e_021",1,9,0.465553672174608,"0",1,1,1.18790433615868,1,1
"263","1",263,"bCFS","f42887_e_013",0,10,0.9,"180",1,2,0.778005705467876,1,1
"264","1",264,"bCFS","f42887_e_004",1,9,0.373719281884655,"0",1,1,1.47803615389239,1,1
"265","1",265,"bCFS","f42887_e_023",1,9,0.465553672174608,"0",1,1,1.27957648966003,1,1
"266","1",266,"bCFS","f42887_e_016",0,9,0.722467405584208,"0",1,1,0.64105279353862,1,1
"267","1",267,"bCFS","f42887_e_019",0,10,0.3,"0",1,2,1.93995618369991,1,1
"268","1",268,"bCFS","f42887_e_028",0,9,0.3,"0",1,1,1.11541189150557,1,1
"269","1",269,"bCFS","f42887_e_002",0,10,0.465553672174608,"180",1,2,1.66750342463456,1,1
"270","1",270,"bCFS","f42887_e_014",0,10,0.465553672174608,"180",1,2,1.27578489871303,1,1
"271","1",271,"bCFS","f42887_e_023",0,9,0.3,"0",1,1,1.31800028757607,1,1
"272","1",272,"bCFS","f42887_e_023",1,9,0.373719281884655,"180",1,1,8.51869024454027,1,1
"273","1",273,"bCFS","f42887_e_014",1,9,0.3,"180",1,1,3.54183913423185,1,1
"274","1",274,"bCFS","f42887_e_008",1,10,0.373719281884655,"180",1,2,3.1895269044453,1,1
"275","1",275,"bCFS","f42887_e_026",0,10,0.579954613479529,"0",1,2,1.58640020260646,1,1
"276","1",276,"bCFS","f42887_e_027",0,9,0.373719281884655,"180",1,2,0.950736916782262,0,1
"277","1",277,"bCFS","f42887_e_014",1,9,0.373719281884655,"0",1,1,1.71883841236377,1,1
"278","1",278,"bCFS","f42887_e_025",0,9,0.465553672174608,"180",1,1,1.23835883877837,1,1
"279","1",279,"bCFS","f42887_e_001",1,9,0.373719281884655,"0",1,1,2.4343910264015,1,1
"280","1",280,"bCFS","f42887_e_008",0,9,0.3,"0",1,1,1.08601749793525,1,1
"281","1",281,"bCFS","f42887_e_004",1,9,0.373719281884655,"180",1,1,1.56668834610173,1,1
"282","1",282,"bCFS","f42887_e_000",0,10,0.465553672174608,"0",1,2,1.44418957228118,1,1
"283","1",283,"bCFS","f42887_e_022",1,10,0.373719281884655,"180",1,2,0.75029421720501,1,1
"284","1",284,"bCFS","f42887_e_010",0,10,0.3,"180",1,2,3.8053480365088,1,1
"285","1",285,"bCFS","f42887_e_012",1,9,0.9,"180",1,1,1.14402003768737,1,1
"286","1",286,"bCFS","f42887_e_014",1,9,0.9,"180",1,1,0.781658894482462,1,1
"287","1",287,"bCFS","f42887_e_024",0,9,0.9,"180",1,1,0.754527904904535,1,1
"288","1",288,"bCFS","f42887_e_029",0,10,0.3,"0",1,2,1.73578907254159,1,1
"289","1",289,"bCFS","f42887_e_015",0,10,0.3,"180",1,2,1.39800127038507,1,1
"290","1",290,"bCFS","f42887_e_013",0,10,0.579954613479529,"180",1,2,1.06411329259936,1,1
"291","1",291,"bCFS","f42887_e_002",1,9,0.579954613479529,"0",1,1,0.809627592629113,1,1
"292","1",292,"bCFS","f42887_e_024",0,9,0.373719281884655,"180",1,1,1.31719857035023,1,1
"293","1",293,"bCFS","f42887_e_012",0,9,0.373719281884655,"0",1,1,1.02057733157744,1,1
"294","1",294,"bCFS","f42887_e_017",1,9,0.722467405584208,"180",1,1,0.823374792322284,1,1
"295","1",295,"bCFS","f42887_e_019",1,10,0.3,"180",1,2,1.21276754373139,1,1
"296","1",296,"bCFS","f42887_e_027",0,10,0.579954613479529,"0",1,2,1.04685472699748,1,1
"297","1",297,"bCFS","f42887_e_014",1,10,0.465553672174608,"0",1,2,1.04030722698553,1,1
"298","1",298,"bCFS","f42887_e_012",1,9,0.3,"0",1,2,0.785506238160451,0,1
"299","1",299,"bCFS","f42887_e_028",0,9,0.373719281884655,"0",1,1,1.09332543104028,1,1
"300","1",300,"bCFS","f42887_e_011",1,9,0.722467405584208,"0",1,1,1.61948292995112,1,1
"301","1",301,"bCFS","f42887_e_000",1,9,0.373719281884655,"0",1,1,1.32035996278864,1,1
"302","1",302,"bCFS","f42887_e_004",1,9,0.722467405584208,"0",1,1,0.919704093132168,1,1
"303","1",303,"bCFS","f42887_e_011",1,10,0.9,"180",1,2,0.78316172176892,1,1
"304","1",304,"bCFS","f42887_e_010",1,9,0.579954613479529,"0",1,1,1.14726393019555,1,1
"305","1",305,"bCFS","f42887_e_008",1,9,0.722467405584208,"180",1,1,1.4981448662802,1,1
"306","1",306,"bCFS","f42887_e_015",0,10,0.373719281884655,"0",1,2,1.19354522575122,1,1
"307","1",307,"bCFS","f42887_e_002",1,10,0.3,"180",1,2,2.99037989577664,1,1
"308","1",308,"bCFS","f42887_e_028",0,10,0.579954613479529,"180",1,2,1.50731111748064,1,1
"309","1",309,"bCFS","f42887_e_019",0,10,0.465553672174608,"0",1,2,1.06691865313951,1,1
"310","1",310,"bCFS","f42887_e_023",0,9,0.3,"180",1,1,1.3076310281067,1,1
"311","1",311,"bCFS","f42887_e_000",1,9,0.3,"180",1,1,2.36396791201878,1,1
"312","1",312,"bCFS","f42887_e_002",0,10,0.722467405584208,"0",1,2,0.841918163288938,1,1
"313","1",313,"bCFS","f42887_e_004",0,10,0.9,"180",1,2,0.826774503637353,1,1
"314","1",314,"bCFS","f42887_e_010",0,10,0.465553672174608,"180",1,2,2.19886576929457,1,1
"315","1",315,"bCFS","f42887_e_027",0,9,0.579954613479529,"180",1,1,2.81845390380113,1,1
"316","1",316,"bCFS","f42887_e_003",1,10,0.3,"0",1,2,2.95050738728423,1,1
"317","1",317,"bCFS","f42887_e_023",0,10,0.579954613479529,"0",1,2,1.21218127936118,1,1
"318","1",318,"bCFS","f42887_e_019",0,10,0.9,"0",1,2,0.792366227886305,1,1
"319","1",319,"bCFS","f42887_e_028",0,9,0.722467405584208,"180",1,1,0.795078283752446,1,1
"320","1",320,"bCFS","f42887_e_022",1,9,0.3,"0",1,1,1.39859842030091,1,1
"321","1",321,"bCFS","f42887_e_027",1,10,0.465553672174608,"180",1,2,0.756018458972903,1,1
"322","1",322,"bCFS","f42887_e_019",0,9,0.373719281884655,"0",1,1,0.834205598914195,1,1
"323","1",323,"bCFS","f42887_e_007",0,10,0.373719281884655,"180",1,2,1.55827039838914,1,1
"324","1",324,"bCFS","f42887_e_008",0,10,0.9,"0",1,2,0.70978692591234,1,1
"325","1",325,"bCFS","f42887_e_024",1,10,0.579954613479529,"180",1,1,0.622532437722839,0,1
"326","1",326,"bCFS","f42887_e_020",0,9,0.722467405584208,"0",1,1,0.938062720844755,1,1
"327","1",327,"bCFS","f42887_e_002",0,9,0.9,"0",1,1,0.73611066265039,1,1
"328","1",328,"bCFS","f42887_e_029",0,9,0.9,"0",1,1,0.708451505948688,1,1
"329","1",329,"bCFS","f42887_e_001",1,10,0.373719281884655,"180",1,2,1.30034673218688,1,1
"330","1",330,"bCFS","f42887_e_016",0,10,0.579954613479529,"0",1,2,1.07642795452557,1,1
"331","1",331,"bCFS","f42887_e_009",1,10,0.3,"180",1,2,1.3727991367723,1,1
"332","1",332,"bCFS","f42887_e_001",1,10,0.9,"0",1,2,0.708108996852388,1,1
"333","1",333,"bCFS","f42887_e_013",0,10,0.373719281884655,"0",1,2,1.45282740801122,1,1
"334","1",334,"bCFS","f42887_e_010",0,9,0.3,"0",1,1,1.20795185941824,1,1
"335","1",335,"bCFS","f42887_e_015",1,9,0.579954613479529,"180",1,1,1.36316348211585,1,1
"336","1",336,"bCFS","f42887_e_004",1,10,0.579954613479529,"0",1,2,0.864058740466135,1,1
"337","1",337,"bCFS","f42887_e_026",1,9,0.9,"180",1,1,0.710376070363054,1,1
"338","1",338,"bCFS","f42887_e_024",0,10,0.3,"0",1,2,1.57417231402542,1,1
"339","1",339,"bCFS","f42887_e_000",1,10,0.373719281884655,"180",1,2,1.07383750575355,1,1
"340","1",340,"bCFS","f42887_e_021",0,9,0.3,"0",1,1,1.20322465266145,1,1
"341","1",341,"bCFS","f42887_e_005",1,10,0.9,"0",1,2,1.17097465763618,1,1
"342","1",342,"bCFS","f42887_e_005",1,10,0.373719281884655,"0",1,2,1.13940954271493,1,1
"343","1",343,"bCFS","f42887_e_022",0,10,0.465553672174608,"180",1,2,1.55421320013375,1,1
"344","1",344,"bCFS","f42887_e_015",1,9,0.9,"180",1,1,1.07372585115991,1,1
"345","1",345,"bCFS","f42887_e_003",1,10,0.579954613479529,"0",1,2,1.06850763174225,1,1
"346","1",346,"bCFS","f42887_e_009",1,10,0.579954613479529,"0",1,2,0.757393769872579,1,1
"347","1",347,"bCFS","f42887_e_003",1,9,0.3,"180",1,1,1.30016852025801,1,1
"348","1",348,"bCFS","f42887_e_027",0,9,0.722467405584208,"0",1,1,0.852871821034569,1,1
"349","1",349,"bCFS","f42887_e_010",1,9,0.722467405584208,"180",1,1,1.102426679985,1,1
"350","1",350,"bCFS","f42887_e_006",1,10,0.9,"180",1,2,0.799890938851604,1,1
"351","1",351,"bCFS","f42887_e_028",1,10,0.9,"0",1,2,1.04258541611671,1,1
"352","1",352,"bCFS","f42887_e_005",0,10,0.9,"180",1,2,0.870744953426765,1,1
"353","1",353,"bCFS","f42887_e_011",1,10,0.373719281884655,"0",1,2,1.68032846313145,1,1
"354","1",354,"bCFS","f42887_e_000",1,9,0.9,"0",1,1,0.855680913762626,1,1
"355","1",355,"bCFS","f42887_e_017",0,9,0.579954613479529,"180",1,1,1.02588792262395,1,1
"356","1",356,"bCFS","f42887_e_001",1,9,0.465553672174608,"180",1,1,1.65268570931221,1,1
"357","1",357,"bCFS","f42887_e_029",1,9,0.579954613479529,"180",1,1,1.36816958890813,1,1
"358","1",358,"bCFS","f42887_e_003",1,10,0.9,"180",1,2,2.93495909636113,1,1
"359","1",359,"bCFS","f42887_e_013",0,9,0.722467405584208,"180",1,1,0.894562526615118,1,1
"360","1",360,"bCFS","f42887_e_011",0,10,0.722467405584208,"180",1,2,1.022692548544,1,1
"361","2",1,"bCFS","f42887_e_013",0,9,0.3,"0",1,1,4.58856118453332,1,0
"362","2",2,"bCFS","f42887_e_022",1,9,0.9,"180",1,1,1.3676981349563,1,0
"363","2",3,"bCFS","f42887_e_000",1,10,0.465553672174608,"180",1,2,5.81982148497991,1,0
"364","2",4,"bCFS","f42887_e_026",0,9,0.9,"180",1,1,2.04559547057943,1,0
"365","2",5,"bCFS","f42887_e_001",1,9,0.373719281884655,"180",1,1,2.85500076835524,1,0
"366","2",6,"bCFS","f42887_e_020",1,9,0.579954613479529,"0",1,1,1.25525418385223,1,0
"367","2",7,"bCFS","f42887_e_006",0,10,0.373719281884655,"180",1,2,4.02407070425397,1,0
"368","2",8,"bCFS","f42887_e_020",0,10,0.9,"180",1,2,1.35434157083182,1,0
"369","2",9,"bCFS","f42887_e_015",0,10,0.3,"0",1,2,4.99114192962043,1,0
"370","2",10,"bCFS","f42887_e_021",1,10,0.373719281884655,"180",1,2,3.13952870735193,1,0
"371","2",11,"bCFS","f42887_e_017",0,9,0.9,"180",1,1,1.20115426760822,1,0
"372","2",12,"bCFS","f42887_e_028",0,10,0.373719281884655,"180",1,2,6.61187180232446,1,0
"373","2",13,"bCFS","f42887_e_012",0,10,0.9,"180",1,2,1.37562778820757,1,0
"374","2",14,"bCFS","f42887_e_017",1,9,0.722467405584208,"0",1,1,1.63581689190323,1,0
"375","2",15,"bCFS","f42887_e_021",1,10,0.373719281884655,"0",1,2,2.39870047908153,1,0
"376","2",16,"bCFS","f42887_e_010",1,10,0.579954613479529,"180",1,2,3.32215550140791,1,0
"377","2",17,"bCFS","f42887_e_002",1,10,0.373719281884655,"180",1,NA,NA,-1,0
"378","2",18,"bCFS","f42887_e_007",1,10,0.579954613479529,"180",1,2,4.94502702740101,1,0
"379","2",19,"bCFS","f42887_e_015",1,9,0.722467405584208,"180",1,1,1.48684073964432,1,0
"380","2",20,"bCFS","f42887_e_029",1,9,0.465553672174608,"180",1,1,1.42224342551162,1,0
"381","2",21,"bCFS","f42887_e_013",1,10,0.465553672174608,"180",1,2,1.95172599199941,1,0
"382","2",22,"bCFS","f42887_e_012",0,10,0.722467405584208,"180",1,2,1.88537423897651,1,0
"383","2",23,"bCFS","f42887_e_018",1,9,0.465553672174608,"0",1,1,1.58879040301508,1,0
"384","2",24,"bCFS","f42887_e_020",1,9,0.373719281884655,"180",1,1,2.72157757225432,1,0
"385","2",25,"bCFS","f42887_e_007",0,9,0.3,"0",1,1,7.63310732415994,1,0
"386","2",26,"bCFS","f42887_e_022",0,10,0.579954613479529,"180",1,2,3.96431807982481,1,0
"387","2",27,"bCFS","f42887_e_004",0,10,0.579954613479529,"0",1,2,1.78472244362274,1,0
"388","2",28,"bCFS","f42887_e_010",1,9,0.3,"0",1,1,2.35683902594792,1,0
"389","2",29,"bCFS","f42887_e_005",0,10,0.579954613479529,"0",1,2,4.13959402062392,1,0
"390","2",30,"bCFS","f42887_e_005",1,9,0.722467405584208,"0",1,1,1.19467799016638,1,0
"391","2",31,"bCFS","f42887_e_027",1,9,0.465553672174608,"0",1,1,1.57540304834947,1,0
"392","2",32,"bCFS","f42887_e_010",0,10,0.3,"180",1,2,6.74145799920552,1,0
"393","2",33,"bCFS","f42887_e_023",1,10,0.722467405584208,"0",1,2,1.66810590748355,1,0
"394","2",34,"bCFS","f42887_e_003",0,10,0.722467405584208,"0",1,2,3.58958753594925,1,0
"395","2",35,"bCFS","f42887_e_011",0,10,0.465553672174608,"180",1,2,2.26512923956216,1,0
"396","2",36,"bCFS","f42887_e_019",1,9,0.579954613479529,"0",1,1,2.86667909240532,1,0
"397","2",37,"bCFS","f42887_e_023",1,10,0.9,"180",1,2,2.61291401553535,1,0
"398","2",38,"bCFS","f42887_e_006",1,10,0.9,"180",1,2,2.25508747950153,1,0
"399","2",39,"bCFS","f42887_e_013",1,10,0.465553672174608,"0",1,1,3.63402482012316,0,0
"400","2",40,"bCFS","f42887_e_011",1,9,0.722467405584208,"0",1,1,0.925681858267126,1,0
"401","2",41,"bCFS","f42887_e_018",0,9,0.722467405584208,"180",1,1,2.12576191367771,1,0
"402","2",42,"bCFS","f42887_e_009",0,10,0.579954613479529,"180",1,2,1.5420637331481,1,0
"403","2",43,"bCFS","f42887_e_024",1,10,0.3,"180",1,2,3.82140175514724,1,0
"404","2",44,"bCFS","f42887_e_007",1,9,0.373719281884655,"180",1,1,3.19240384423756,1,0
"405","2",45,"bCFS","f42887_e_025",0,9,0.722467405584208,"0",1,1,1.31676497935769,1,0
"406","2",46,"bCFS","f42887_e_013",0,10,0.722467405584208,"0",1,1,1.70079613316557,0,0
"407","2",47,"bCFS","f42887_e_008",0,10,0.579954613479529,"0",1,2,2.5815524484151,1,0
"408","2",48,"bCFS","f42887_e_016",0,10,0.3,"0",1,1,3.96182777807007,0,0
"409","2",49,"bCFS","f42887_e_000",0,10,0.9,"180",1,2,3.07207440409366,1,0
"410","2",50,"bCFS","f42887_e_010",1,10,0.373719281884655,"0",1,2,5.67440801620069,1,0
"411","2",51,"bCFS","f42887_e_019",1,9,0.465553672174608,"0",1,1,2.77947374468022,1,0
"412","2",52,"bCFS","f42887_e_016",0,9,0.465553672174608,"180",1,1,6.50424050631955,1,0
"413","2",53,"bCFS","f42887_e_009",1,10,0.722467405584208,"0",1,2,1.23281254359244,1,0
"414","2",54,"bCFS","f42887_e_011",1,10,0.3,"0",1,1,3.84297566193527,0,0
"415","2",55,"bCFS","f42887_e_005",1,9,0.722467405584208,"180",1,1,2.90986142871043,1,0
"416","2",56,"bCFS","f42887_e_007",1,9,0.465553672174608,"180",1,1,1.58220900230845,1,0
"417","2",57,"bCFS","f42887_e_028",0,10,0.579954613479529,"180",1,2,6.47478079947541,1,0
"418","2",58,"bCFS","f42887_e_005",1,9,0.9,"180",1,1,2.9567037963734,1,0
"419","2",59,"bCFS","f42887_e_020",1,10,0.465553672174608,"0",1,2,1.53153834385921,1,0
"420","2",60,"bCFS","f42887_e_006",0,9,0.373719281884655,"0",1,1,7.38506057976338,1,0
"421","2",61,"bCFS","f42887_e_027",0,9,0.465553672174608,"180",1,1,3.9262164940501,1,0
"422","2",62,"bCFS","f42887_e_006",1,9,0.3,"0",1,1,2.74992477636442,1,0
"423","2",63,"bCFS","f42887_e_012",0,9,0.9,"0",1,1,1.1713602190157,1,0
"424","2",64,"bCFS","f42887_e_029",0,10,0.3,"0",1,1,5.88945134222558,0,0
"425","2",65,"bCFS","f42887_e_001",1,10,0.465553672174608,"180",1,2,6.60190437498568,1,0
"426","2",66,"bCFS","f42887_e_019",0,9,0.373719281884655,"180",1,1,6.73234804182357,1,0
"427","2",67,"bCFS","f42887_e_015",1,9,0.465553672174608,"0",1,1,1.57148238593436,1,0
"428","2",68,"bCFS","f42887_e_015",1,9,0.9,"180",1,1,1.52838806704131,1,0
"429","2",69,"bCFS","f42887_e_012",0,9,0.579954613479529,"0",1,1,1.33579477869353,1,0
"430","2",70,"bCFS","f42887_e_015",1,10,0.9,"0",1,2,1.26337604473156,1,0
"431","2",71,"bCFS","f42887_e_025",0,9,0.9,"0",1,1,0.977439827185663,1,0
"432","2",72,"bCFS","f42887_e_008",0,10,0.465553672174608,"0",1,2,1.61570040412516,1,0
"433","2",73,"bCFS","f42887_e_021",1,10,0.579954613479529,"0",1,2,3.61171536148686,1,0
"434","2",74,"bCFS","f42887_e_004",1,9,0.3,"0",1,1,2.62406734528486,1,0
"435","2",75,"bCFS","f42887_e_021",1,10,0.3,"0",1,2,6.55542402946048,1,0
"436","2",76,"bCFS","f42887_e_019",0,9,0.373719281884655,"0",1,1,2.08275716726894,1,0
"437","2",77,"bCFS","f42887_e_017",0,9,0.373719281884655,"0",1,1,3.03488409397141,1,0
"438","2",78,"bCFS","f42887_e_009",0,10,0.3,"0",1,2,6.93437878695659,1,0
"439","2",79,"bCFS","f42887_e_002",0,10,0.9,"180",1,2,2.12693506444703,1,0
"440","2",80,"bCFS","f42887_e_026",1,9,0.579954613479529,"0",1,1,2.1371805397157,1,0
"441","2",81,"bCFS","f42887_e_012",1,9,0.722467405584208,"0",1,1,2.40061135880933,1,0
"442","2",82,"bCFS","f42887_e_006",1,10,0.579954613479529,"0",1,2,3.25276108295475,1,0
"443","2",83,"bCFS","f42887_e_029",0,10,0.722467405584208,"180",1,2,3.40639531556917,1,0
"444","2",84,"bCFS","f42887_e_011",0,10,0.465553672174608,"0",1,2,4.01066344458923,1,0
"445","2",85,"bCFS","f42887_e_024",0,10,0.579954613479529,"180",1,2,1.91958626389533,1,0
"446","2",86,"bCFS","f42887_e_001",0,9,0.9,"180",1,1,1.8084799908047,1,0
"447","2",87,"bCFS","f42887_e_013",0,10,0.579954613479529,"180",1,2,2.49334065426956,1,0
"448","2",88,"bCFS","f42887_e_019",0,10,0.579954613479529,"180",1,2,2.21563359797983,1,0
"449","2",89,"bCFS","f42887_e_023",0,10,0.3,"180",1,2,6.18105581873715,1,0
"450","2",90,"bCFS","f42887_e_004",1,10,0.373719281884655,"0",1,2,7.19541074287554,1,0
"451","2",91,"bCFS","f42887_e_013",1,9,0.579954613479529,"0",1,1,1.60388305611195,1,0
"452","2",92,"bCFS","f42887_e_008",0,10,0.373719281884655,"180",1,2,3.000695706236,1,0
"453","2",93,"bCFS","f42887_e_000",1,10,0.579954613479529,"180",1,2,1.71090880478187,1,0
"454","2",94,"bCFS","f42887_e_012",1,9,0.3,"0",1,1,1.22378313924673,1,0
"455","2",95,"bCFS","f42887_e_004",0,9,0.465553672174608,"180",1,1,1.36388757205896,1,0
"456","2",96,"bCFS","f42887_e_017",1,9,0.465553672174608,"0",1,1,2.69004463554847,1,0
"457","2",97,"bCFS","f42887_e_017",0,10,0.373719281884655,"180",1,2,4.61946213757801,1,0
"458","2",98,"bCFS","f42887_e_018",0,10,0.373719281884655,"0",1,2,3.84850365286911,1,0
"459","2",99,"bCFS","f42887_e_007",1,9,0.722467405584208,"180",1,1,1.54216388016721,1,0
"460","2",100,"bCFS","f42887_e_000",0,10,0.579954613479529,"0",1,2,3.57360413422975,1,0
"461","2",101,"bCFS","f42887_e_010",0,10,0.9,"180",1,2,1.11858833930455,1,0
"462","2",102,"bCFS","f42887_e_023",1,9,0.579954613479529,"0",1,1,1.21536052629926,1,0
"463","2",103,"bCFS","f42887_e_029",0,9,0.9,"0",1,1,1.02893592098553,1,0
"464","2",104,"bCFS","f42887_e_004",1,10,0.3,"180",1,2,3.70567099138316,1,0
"465","2",105,"bCFS","f42887_e_014",1,10,0.722467405584208,"180",1,2,1.38929132471094,1,0
"466","2",106,"bCFS","f42887_e_012",0,10,0.3,"180",1,2,2.28401721579394,1,0
"467","2",107,"bCFS","f42887_e_017",0,10,0.465553672174608,"180",1,2,1.75092531348855,1,0
"468","2",108,"bCFS","f42887_e_018",1,9,0.373719281884655,"180",1,1,1.79850354401606,1,0
"469","2",109,"bCFS","f42887_e_013",0,10,0.9,"0",1,2,1.45931586072948,1,0
"470","2",110,"bCFS","f42887_e_007",0,9,0.465553672174608,"0",1,2,1.31954794677586,0,0
"471","2",111,"bCFS","f42887_e_016",1,10,0.579954613479529,"0",1,2,1.32022409464844,1,0
"472","2",112,"bCFS","f42887_e_016",0,10,0.465553672174608,"0",1,2,1.74433800348379,1,0
"473","2",113,"bCFS","f42887_e_015",0,10,0.373719281884655,"0",1,2,3.76852755130858,1,0
"474","2",114,"bCFS","f42887_e_005",0,9,0.465553672174608,"0",1,1,4.32752300830361,1,0
"475","2",115,"bCFS","f42887_e_018",1,9,0.579954613479529,"180",1,1,1.31842860170036,1,0
"476","2",116,"bCFS","f42887_e_027",0,10,0.722467405584208,"0",1,2,1.50266707849551,1,0
"477","2",117,"bCFS","f42887_e_027",0,10,0.9,"0",1,2,1.12952800134735,1,0
"478","2",118,"bCFS","f42887_e_006",1,9,0.3,"180",1,1,2.93571086668999,1,0
"479","2",119,"bCFS","f42887_e_002",0,10,0.465553672174608,"180",1,2,1.39855865597565,1,0
"480","2",120,"bCFS","f42887_e_017",1,10,0.3,"0",1,2,1.46866716620207,1,0
"481","2",121,"bCFS","f42887_e_009",1,9,0.373719281884655,"180",1,1,1.71959982417502,1,0
"482","2",122,"bCFS","f42887_e_018",0,9,0.3,"0",1,1,2.98227083220445,1,0
"483","2",123,"bCFS","f42887_e_003",1,10,0.465553672174608,"180",1,2,2.12328000934031,1,0
"484","2",124,"bCFS","f42887_e_023",1,9,0.465553672174608,"0",1,1,2.67600041597507,1,0
"485","2",125,"bCFS","f42887_e_014",0,10,0.373719281884655,"180",1,2,1.28561894603445,1,0
"486","2",126,"bCFS","f42887_e_016",0,10,0.373719281884655,"0",1,2,2.54238439021356,1,0
"487","2",127,"bCFS","f42887_e_013",1,10,0.373719281884655,"0",1,2,1.65258000968424,1,0
"488","2",128,"bCFS","f42887_e_026",1,9,0.373719281884655,"0",1,1,2.00814173025901,1,0
"489","2",129,"bCFS","f42887_e_010",1,9,0.579954613479529,"0",1,1,1.85971078831426,1,0
"490","2",130,"bCFS","f42887_e_027",1,10,0.9,"180",1,2,1.73187778626379,1,0
"491","2",131,"bCFS","f42887_e_000",1,9,0.465553672174608,"0",1,1,4.02793476183069,1,0
"492","2",132,"bCFS","f42887_e_001",1,10,0.3,"0",1,2,2.87172563122112,1,0
"493","2",133,"bCFS","f42887_e_007",1,9,0.579954613479529,"0",1,1,2.51463993429934,1,0
"494","2",134,"bCFS","f42887_e_027",1,10,0.579954613479529,"180",1,2,1.91402810444743,1,0
"495","2",135,"bCFS","f42887_e_002",0,9,0.373719281884655,"0",1,1,2.72360881501299,1,0
"496","2",136,"bCFS","f42887_e_026",1,9,0.3,"180",1,1,3.14777155329284,1,0
"497","2",137,"bCFS","f42887_e_019",0,9,0.465553672174608,"180",1,1,3.10672651606001,1,0
"498","2",138,"bCFS","f42887_e_002",1,9,0.579954613479529,"0",1,1,1.56237522769516,1,0
"499","2",139,"bCFS","f42887_e_013",0,9,0.9,"180",1,1,2.18459953026468,1,0
"500","2",140,"bCFS","f42887_e_025",0,10,0.3,"0",1,1,4.81457496314397,0,0
"501","2",141,"bCFS","f42887_e_025",0,10,0.722467405584208,"180",1,2,1.73776437816559,1,0
"502","2",142,"bCFS","f42887_e_017",1,9,0.579954613479529,"0",1,1,2.78663021319699,1,0
"503","2",143,"bCFS","f42887_e_015",1,9,0.465553672174608,"180",1,1,1.93620880263552,1,0
"504","2",144,"bCFS","f42887_e_022",0,9,0.465553672174608,"180",1,1,1.76030336630174,1,0
"505","2",145,"bCFS","f42887_e_027",0,10,0.579954613479529,"0",1,2,1.69381041220367,1,0
"506","2",146,"bCFS","f42887_e_015",0,10,0.579954613479529,"0",1,2,1.79795460151399,1,0
"507","2",147,"bCFS","f42887_e_005",0,10,0.373719281884655,"0",1,2,1.64142077063843,1,0
"508","2",148,"bCFS","f42887_e_007",1,10,0.373719281884655,"0",1,2,8.1001603551158,1,0
"509","2",149,"bCFS","f42887_e_005",0,9,0.3,"180",1,1,2.05424916810261,1,0
"510","2",150,"bCFS","f42887_e_026",0,10,0.722467405584208,"180",1,2,1.81640062460428,1,0
"511","2",151,"bCFS","f42887_e_019",1,9,0.3,"0",1,1,1.50850639602868,1,0
"512","2",152,"bCFS","f42887_e_026",0,10,0.465553672174608,"0",1,1,1.76532688996485,0,0
"513","2",153,"bCFS","f42887_e_017",1,9,0.9,"0",1,1,1.90753316607152,1,0
"514","2",154,"bCFS","f42887_e_024",0,9,0.9,"0",1,1,1.31579709886864,1,0
"515","2",155,"bCFS","f42887_e_003",0,9,0.9,"0",1,1,1.37975309887406,1,0
"516","2",156,"bCFS","f42887_e_005",0,10,0.9,"0",1,2,1.5859194181885,1,0
"517","2",157,"bCFS","f42887_e_005",0,9,0.579954613479529,"180",1,1,1.24025017019449,1,0
"518","2",158,"bCFS","f42887_e_014",0,10,0.373719281884655,"0",1,2,1.70762852344888,1,0
"519","2",159,"bCFS","f42887_e_018",1,10,0.3,"180",1,2,3.41244519065003,1,0
"520","2",160,"bCFS","f42887_e_029",0,10,0.373719281884655,"180",1,2,4.45668684602424,1,0
"521","2",161,"bCFS","f42887_e_003",0,9,0.9,"180",1,1,2.61305335051657,1,0
"522","2",162,"bCFS","f42887_e_020",1,9,0.722467405584208,"0",1,1,1.16727565139081,1,0
"523","2",163,"bCFS","f42887_e_003",1,10,0.3,"0",1,2,2.52473270091832,1,0
"524","2",164,"bCFS","f42887_e_020",0,9,0.465553672174608,"180",1,1,4.13225436392895,1,0
"525","2",165,"bCFS","f42887_e_024",1,10,0.373719281884655,"180",1,2,1.56525958619204,1,0
"526","2",166,"bCFS","f42887_e_021",1,10,0.9,"180",1,2,1.62741200684104,1,0
"527","2",167,"bCFS","f42887_e_003",1,9,0.465553672174608,"0",1,1,1.53489948924289,1,0
"528","2",168,"bCFS","f42887_e_022",1,10,0.9,"0",1,2,1.28646926263355,1,0
"529","2",169,"bCFS","f42887_e_011",1,9,0.3,"180",1,1,2.51320459739327,1,0
"530","2",170,"bCFS","f42887_e_024",0,9,0.579954613479529,"0",1,1,1.89607752917982,1,0
"531","2",171,"bCFS","f42887_e_017",1,9,0.3,"180",1,1,7.32076868293188,1,0
"532","2",172,"bCFS","f42887_e_016",1,9,0.9,"0",1,1,1.0721608664262,1,0
"533","2",173,"bCFS","f42887_e_019",1,9,0.722467405584208,"0",1,1,1.17829742154936,1,0
"534","2",174,"bCFS","f42887_e_009",0,9,0.373719281884655,"0",1,1,6.08024851559276,1,0
"535","2",175,"bCFS","f42887_e_025",1,9,0.373719281884655,"0",1,1,4.25807385110784,1,0
"536","2",176,"bCFS","f42887_e_012",0,9,0.579954613479529,"180",1,1,1.6436560396196,1,0
"537","2",177,"bCFS","f42887_e_003",0,10,0.579954613479529,"180",1,2,2.06254892989637,1,0
"538","2",178,"bCFS","f42887_e_021",1,9,0.9,"0",1,1,1.07335143406817,1,0
"539","2",179,"bCFS","f42887_e_023",0,10,0.373719281884655,"180",1,2,1.19557713620998,1,0
"540","2",180,"bCFS","f42887_e_016",1,9,0.722467405584208,"0",1,1,1.07364067855997,1,0
"541","2",181,"bCFS","f42887_e_012",1,10,0.373719281884655,"180",1,2,4.4182695794334,1,0
"542","2",182,"bCFS","f42887_e_029",1,9,0.579954613479529,"180",1,1,1.84728229468419,1,0
"543","2",183,"bCFS","f42887_e_005",1,10,0.465553672174608,"180",1,2,1.53808770996329,1,0
"544","2",184,"bCFS","f42887_e_029",0,10,0.3,"180",1,2,1.47494874789118,1,0
"545","2",185,"bCFS","f42887_e_022",0,9,0.579954613479529,"0",1,1,1.43759515458623,1,0
"546","2",186,"bCFS","f42887_e_024",0,10,0.722467405584208,"0",1,2,1.12911061843624,1,0
"547","2",187,"bCFS","f42887_e_001",1,10,0.373719281884655,"0",1,2,1.67407305242159,1,0
"548","2",188,"bCFS","f42887_e_025",1,9,0.579954613479529,"0",1,1,1.42881145254978,1,0
"549","2",189,"bCFS","f42887_e_029",0,9,0.373719281884655,"0",1,1,1.44890057095472,1,0
"550","2",190,"bCFS","f42887_e_016",1,10,0.579954613479529,"180",1,2,1.28370526716571,1,0
"551","2",191,"bCFS","f42887_e_027",0,10,0.722467405584208,"180",1,2,1.40459111418386,1,0
"552","2",192,"bCFS","f42887_e_029",0,9,0.722467405584208,"0",1,1,1.4493070683202,1,0
"553","2",193,"bCFS","f42887_e_008",1,9,0.3,"180",1,1,2.27758634662678,1,0
"554","2",194,"bCFS","f42887_e_001",1,10,0.722467405584208,"180",1,2,1.24902454176481,1,0
"555","2",195,"bCFS","f42887_e_006",0,10,0.722467405584208,"0",1,2,1.15648620987304,1,0
"556","2",196,"bCFS","f42887_e_014",0,9,0.3,"180",1,1,2.41068639753939,1,0
"557","2",197,"bCFS","f42887_e_004",0,9,0.9,"180",1,1,0.926885799581214,1,0
"558","2",198,"bCFS","f42887_e_010",0,10,0.9,"0",1,2,0.902983630152448,1,0
"559","2",199,"bCFS","f42887_e_014",0,9,0.579954613479529,"180",1,1,1.18374143827896,1,0
"560","2",200,"bCFS","f42887_e_009",0,9,0.579954613479529,"0",1,1,1.53990715111104,1,0
"561","2",201,"bCFS","f42887_e_014",0,10,0.3,"0",1,2,2.68350708803882,1,0
"562","2",202,"bCFS","f42887_e_021",1,9,0.722467405584208,"180",1,1,1.06165009486722,1,0
"563","2",203,"bCFS","f42887_e_000",0,9,0.373719281884655,"0",1,1,2.30312072582274,1,0
"564","2",204,"bCFS","f42887_e_012",1,10,0.465553672174608,"180",1,2,1.42399506526272,1,0
"565","2",205,"bCFS","f42887_e_014",1,9,0.9,"0",1,1,0.828165099970647,1,0
"566","2",206,"bCFS","f42887_e_026",1,9,0.722467405584208,"0",1,1,1.65554554324808,1,0
"567","2",207,"bCFS","f42887_e_002",0,10,0.722467405584208,"0",1,2,1.11386090247288,1,0
"568","2",208,"bCFS","f42887_e_015",1,9,0.579954613479529,"180",1,1,1.01787465185043,1,0
"569","2",209,"bCFS","f42887_e_008",1,9,0.465553672174608,"180",1,1,2.27859683624774,1,0
"570","2",210,"bCFS","f42887_e_028",0,9,0.3,"180",1,1,1.87227115254973,1,0
"571","2",211,"bCFS","f42887_e_027",0,9,0.373719281884655,"180",1,1,1.64249190830014,1,0
"572","2",212,"bCFS","f42887_e_009",0,10,0.9,"0",1,2,1.61387287657271,1,0
"573","2",213,"bCFS","f42887_e_028",0,9,0.9,"180",1,1,0.930054426320567,1,0
"574","2",214,"bCFS","f42887_e_000",1,10,0.722467405584208,"180",1,2,1.01812595243973,1,0
"575","2",215,"bCFS","f42887_e_002",0,10,0.3,"0",1,2,1.23647539687227,1,0
"576","2",216,"bCFS","f42887_e_004",1,9,0.9,"0",1,1,0.783930597952349,1,0
"577","2",217,"bCFS","f42887_e_028",1,9,0.3,"0",1,1,1.52657671229645,1,0
"578","2",218,"bCFS","f42887_e_027",0,10,0.3,"0",1,1,2.05398262774906,0,0
"579","2",219,"bCFS","f42887_e_004",0,9,0.465553672174608,"0",1,1,1.35081589820766,1,0
"580","2",220,"bCFS","f42887_e_001",0,9,0.579954613479529,"180",1,1,1.61431856189847,1,0
"581","2",221,"bCFS","f42887_e_024",1,9,0.465553672174608,"0",1,1,2.44396413165305,1,0
"582","2",222,"bCFS","f42887_e_006",0,10,0.579954613479529,"180",1,2,2.30400960835141,1,0
"583","2",223,"bCFS","f42887_e_023",0,9,0.9,"0",1,1,0.833660434269405,1,0
"584","2",224,"bCFS","f42887_e_000",1,10,0.3,"0",1,1,1.67765159769442,0,0
"585","2",225,"bCFS","f42887_e_018",1,9,0.722467405584208,"0",1,1,0.991235856325147,1,0
"586","2",226,"bCFS","f42887_e_025",0,10,0.3,"180",1,2,2.09404361168527,1,0
"587","2",227,"bCFS","f42887_e_009",0,10,0.465553672174608,"180",1,1,1.26357696079685,0,0
"588","2",228,"bCFS","f42887_e_000",0,9,0.9,"0",1,1,0.778965234203497,1,0
"589","2",229,"bCFS","f42887_e_026",1,9,0.3,"0",1,1,1.26516904955679,1,0
"590","2",230,"bCFS","f42887_e_019",1,10,0.3,"180",1,2,3.63713186577843,1,0
"591","2",231,"bCFS","f42887_e_002",0,9,0.9,"0",1,1,0.80090893851775,1,0
"592","2",232,"bCFS","f42887_e_022",1,10,0.722467405584208,"0",1,2,1.49432159741264,1,0
"593","2",233,"bCFS","f42887_e_001",0,9,0.9,"0",1,1,1.19134062785997,1,0
"594","2",234,"bCFS","f42887_e_002",1,9,0.722467405584208,"180",1,1,1.03740580830163,1,0
"595","2",235,"bCFS","f42887_e_008",1,10,0.9,"0",1,2,1.14619999156275,1,0
"596","2",236,"bCFS","f42887_e_020",0,9,0.579954613479529,"180",1,1,1.40821973296624,1,0
"597","2",237,"bCFS","f42887_e_009",1,9,0.722467405584208,"180",1,1,1.06905413178902,1,0
"598","2",238,"bCFS","f42887_e_001",0,9,0.3,"180",1,2,1.327201418193,0,0
"599","2",239,"bCFS","f42887_e_029",1,9,0.9,"180",1,1,1.10757530036426,1,0
"600","2",240,"bCFS","f42887_e_001",0,10,0.465553672174608,"0",1,2,3.39610474304209,1,0
"601","2",241,"bCFS","f42887_e_021",0,10,0.465553672174608,"180",1,2,1.53645581120873,1,0
"602","2",242,"bCFS","f42887_e_017",1,9,0.722467405584208,"180",1,1,1.19124842135534,1,0
"603","2",243,"bCFS","f42887_e_011",1,9,0.579954613479529,"180",1,1,3.57323091553189,1,0
"604","2",244,"bCFS","f42887_e_026",1,9,0.465553672174608,"180",1,1,1.86764106359806,1,0
"605","2",245,"bCFS","f42887_e_022",1,9,0.373719281884655,"0",1,1,2.27838658971632,1,0
"606","2",246,"bCFS","f42887_e_008",0,10,0.373719281884655,"0",1,2,2.98601701487678,1,0
"607","2",247,"bCFS","f42887_e_015",0,9,0.3,"180",1,1,3.95148246680037,1,0
"608","2",248,"bCFS","f42887_e_021",1,10,0.722467405584208,"0",1,2,1.31188607793956,1,0
"609","2",249,"bCFS","f42887_e_016",0,9,0.722467405584208,"180",1,1,1.49532897687823,1,0
"610","2",250,"bCFS","f42887_e_007",1,10,0.3,"180",1,2,4.33670978653208,1,0
"611","2",251,"bCFS","f42887_e_003",0,10,0.579954613479529,"0",1,2,3.65507466565759,1,0
"612","2",252,"bCFS","f42887_e_011",1,10,0.9,"180",1,2,1.99408693615624,1,0
"613","2",253,"bCFS","f42887_e_029",0,10,0.465553672174608,"0",1,2,4.19625483916207,1,0
"614","2",254,"bCFS","f42887_e_024",1,10,0.3,"0",1,2,3.06455560242466,1,0
"615","2",255,"bCFS","f42887_e_016",1,10,0.3,"180",1,2,2.754082743666,1,0
"616","2",256,"bCFS","f42887_e_025",1,9,0.9,"180",1,1,1.71242749386329,1,0
"617","2",257,"bCFS","f42887_e_028",1,10,0.722467405584208,"180",1,2,1.30388862329164,1,0
"618","2",258,"bCFS","f42887_e_008",0,10,0.9,"180",1,2,1.15936061587126,1,0
"619","2",259,"bCFS","f42887_e_002",1,9,0.579954613479529,"180",1,1,1.58006797104645,1,0
"620","2",260,"bCFS","f42887_e_023",1,10,0.722467405584208,"180",1,2,0.984291189419309,1,0
"621","2",261,"bCFS","f42887_e_014",0,10,0.722467405584208,"0",1,2,1.32716565140072,1,0
"622","2",262,"bCFS","f42887_e_010",0,9,0.722467405584208,"0",1,1,1.09290845033684,1,0
"623","2",263,"bCFS","f42887_e_011",0,9,0.373719281884655,"180",1,1,1.81350817970269,1,0
"624","2",264,"bCFS","f42887_e_029",1,9,0.579954613479529,"0",1,1,1.80960057994344,1,0
"625","2",265,"bCFS","f42887_e_015",1,10,0.373719281884655,"180",1,2,2.68567237851312,1,0
"626","2",266,"bCFS","f42887_e_024",0,9,0.465553672174608,"180",1,1,1.36665032346536,1,0
"627","2",267,"bCFS","f42887_e_000",0,9,0.722467405584208,"0",1,1,1.42881145254978,1,0
"628","2",268,"bCFS","f42887_e_018",0,10,0.465553672174608,"180",1,2,1.4243362493562,1,0
"629","2",269,"bCFS","f42887_e_001",0,10,0.579954613479529,"0",1,2,1.90109234440752,1,0
"630","2",270,"bCFS","f42887_e_027",1,9,0.3,"180",1,1,2.20462893367767,1,0
"631","2",271,"bCFS","f42887_e_008",0,9,0.579954613479529,"180",1,1,1.09802087893513,1,0
"632","2",272,"bCFS","f42887_e_007",0,10,0.9,"180",1,2,1.37006247540194,1,0
"633","2",273,"bCFS","f42887_e_022",0,10,0.373719281884655,"180",1,2,1.65630784243513,1,0
"634","2",274,"bCFS","f42887_e_024",1,10,0.373719281884655,"0",1,2,1.69112634773956,1,0
"635","2",275,"bCFS","f42887_e_023",0,10,0.373719281884655,"0",1,2,4.22791778037936,1,0
"636","2",276,"bCFS","f42887_e_021",1,9,0.579954613479529,"180",1,1,1.7541754263093,1,0
"637","2",277,"bCFS","f42887_e_004",0,10,0.579954613479529,"180",1,2,5.16102703735305,1,0
"638","2",278,"bCFS","f42887_e_012",1,10,0.465553672174608,"0",1,2,1.19949126729807,1,0
"639","2",279,"bCFS","f42887_e_006",0,10,0.465553672174608,"0",1,2,2.34817848608145,1,0
"640","2",280,"bCFS","f42887_e_028",0,9,0.9,"0",1,1,1.1318093006339,1,0
"641","2",281,"bCFS","f42887_e_023",1,10,0.3,"0",1,2,1.31535918893132,1,0
"642","2",282,"bCFS","f42887_e_022",0,9,0.3,"0",1,1,1.16998304202389,1,0
"643","2",283,"bCFS","f42887_e_008",0,10,0.722467405584208,"180",1,2,2.13488306761974,1,0
"644","2",284,"bCFS","f42887_e_028",1,10,0.373719281884655,"0",1,2,3.19104968240026,1,0
"645","2",285,"bCFS","f42887_e_018",0,10,0.9,"0",1,2,1.34858218430418,1,0
"646","2",286,"bCFS","f42887_e_028",0,10,0.722467405584208,"0",1,2,3.76273457509706,1,0
"647","2",287,"bCFS","f42887_e_006",0,10,0.9,"0",1,2,1.5924351946087,1,0
"648","2",288,"bCFS","f42887_e_004",1,9,0.722467405584208,"180",1,1,2.07584764512285,1,0
"649","2",289,"bCFS","f42887_e_025",0,9,0.465553672174608,"180",1,1,1.30879520509552,1,0
"650","2",290,"bCFS","f42887_e_020",1,9,0.722467405584208,"180",1,1,1.85281774999385,1,0
"651","2",291,"bCFS","f42887_e_028",0,9,0.465553672174608,"0",1,1,2.07169465406878,1,0
"652","2",292,"bCFS","f42887_e_013",1,9,0.373719281884655,"180",1,1,2.15453800827345,1,0
"653","2",293,"bCFS","f42887_e_013",1,9,0.3,"180",1,1,1.80210230530247,1,0
"654","2",294,"bCFS","f42887_e_003",1,10,0.373719281884655,"180",1,2,1.64822423647274,1,0
"655","2",295,"bCFS","f42887_e_016",1,9,0.9,"180",1,1,1.54640955386276,1,0
"656","2",296,"bCFS","f42887_e_028",0,10,0.465553672174608,"180",1,2,3.26594565546111,1,0
"657","2",297,"bCFS","f42887_e_009",1,10,0.3,"180",1,2,6.02076491964363,1,0
"658","2",298,"bCFS","f42887_e_000",1,10,0.373719281884655,"180",1,1,3.27935478121981,0,0
"659","2",299,"bCFS","f42887_e_002",0,10,0.465553672174608,"0",1,2,1.78349984137458,1,0
"660","2",300,"bCFS","f42887_e_026",1,9,0.579954613479529,"180",1,1,1.5623867352715,1,0
"661","2",301,"bCFS","f42887_e_025",1,10,0.373719281884655,"180",1,2,2.16916880323151,1,0
"662","2",302,"bCFS","f42887_e_014",0,10,0.579954613479529,"0",1,2,4.4213281066568,1,0
"663","2",303,"bCFS","f42887_e_028",1,9,0.579954613479529,"0",1,1,5.17643474923534,1,0
"664","2",304,"bCFS","f42887_e_019",1,9,0.722467405584208,"180",1,1,1.95068688894389,1,0
"665","2",305,"bCFS","f42887_e_007",0,10,0.722467405584208,"0",1,2,2.34950310143904,1,0
"666","2",306,"bCFS","f42887_e_025",1,9,0.579954613479529,"180",1,1,1.53911095122385,1,0
"667","2",307,"bCFS","f42887_e_016",0,9,0.373719281884655,"180",1,1,2.11466767688944,1,0
"668","2",308,"bCFS","f42887_e_018",1,10,0.579954613479529,"0",1,2,1.61014162264655,1,0
"669","2",309,"bCFS","f42887_e_008",0,10,0.3,"0",1,2,5.87502177434908,1,0
"670","2",310,"bCFS","f42887_e_014",0,10,0.9,"180",1,2,1.13269756113186,1,0
"671","2",311,"bCFS","f42887_e_003",0,9,0.373719281884655,"0",1,1,3.43350187852593,1,0
"672","2",312,"bCFS","f42887_e_011",0,9,0.579954613479529,"0",1,1,1.30247847864666,1,0
"673","2",313,"bCFS","f42887_e_023",1,9,0.579954613479529,"180",1,1,1.30329800470281,1,0
"674","2",314,"bCFS","f42887_e_021",0,10,0.3,"180",1,2,7.27986329169471,1,0
"675","2",315,"bCFS","f42887_e_022",1,9,0.465553672174608,"0",1,1,3.27116200878663,1,0
"676","2",316,"bCFS","f42887_e_005",1,9,0.3,"0",1,1,2.13675693649566,1,0
"677","2",317,"bCFS","f42887_e_025",0,10,0.465553672174608,"0",1,2,1.62371465361684,1,0
"678","2",318,"bCFS","f42887_e_019",1,9,0.9,"0",1,1,0.850682628029972,1,0
"679","2",319,"bCFS","f42887_e_017",0,9,0.579954613479529,"180",1,1,1.24603910320548,1,0
"680","2",320,"bCFS","f42887_e_020",1,10,0.373719281884655,"0",1,2,1.65745580094699,1,0
"681","2",321,"bCFS","f42887_e_014",1,9,0.465553672174608,"0",1,1,1.25024278979618,1,0
"682","2",322,"bCFS","f42887_e_027",0,9,0.373719281884655,"0",1,1,1.21366797950759,1,0
"683","2",323,"bCFS","f42887_e_007",1,9,0.9,"0",1,1,1.24249259253338,1,0
"684","2",324,"bCFS","f42887_e_024",1,9,0.9,"180",1,1,1.06409125616301,1,0
"685","2",325,"bCFS","f42887_e_018",0,9,0.9,"180",1,1,1.31490044094971,1,0
"686","2",326,"bCFS","f42887_e_011",0,9,0.373719281884655,"0",1,1,1.66721176047031,1,0
"687","2",327,"bCFS","f42887_e_009",1,10,0.465553672174608,"0",1,1,1.58849556024506,0,0
"688","2",328,"bCFS","f42887_e_009",1,10,0.9,"180",1,2,1.17794006464646,1,0
"689","2",329,"bCFS","f42887_e_003",0,10,0.722467405584208,"180",1,2,1.43871916489661,1,0
"690","2",330,"bCFS","f42887_e_006",0,9,0.722467405584208,"180",1,1,0.928282570554074,1,0
"691","2",331,"bCFS","f42887_e_010",0,9,0.465553672174608,"0",1,1,1.39262997664628,1,0
"692","2",332,"bCFS","f42887_e_013",1,9,0.722467405584208,"180",1,1,1.03665066247049,1,0
"693","2",333,"bCFS","f42887_e_015",0,10,0.722467405584208,"0",1,2,2.03267774943924,1,0
"694","2",334,"bCFS","f42887_e_014",0,9,0.465553672174608,"180",1,1,1.17947741466196,1,0
"695","2",335,"bCFS","f42887_e_020",1,10,0.9,"0",1,2,0.994367161194532,1,0
"696","2",336,"bCFS","f42887_e_021",1,9,0.465553672174608,"0",1,1,1.27852592469571,1,0
"697","2",337,"bCFS","f42887_e_024",0,10,0.722467405584208,"180",1,2,2.15252542645067,1,0
"698","2",338,"bCFS","f42887_e_002",1,9,0.3,"180",1,1,1.8148638966195,1,0
"699","2",339,"bCFS","f42887_e_001",1,10,0.722467405584208,"0",1,2,1.30096289972062,1,0
"700","2",340,"bCFS","f42887_e_023",1,9,0.465553672174608,"180",1,1,1.67706191215439,1,0
"701","2",341,"bCFS","f42887_e_011",1,9,0.722467405584208,"180",1,1,1.61587643894381,1,0
"702","2",342,"bCFS","f42887_e_010",0,10,0.722467405584208,"180",1,2,1.21279340369256,1,0
"703","2",343,"bCFS","f42887_e_011",0,10,0.9,"0",1,2,1.35417953171418,1,0
"704","2",344,"bCFS","f42887_e_019",1,10,0.9,"180",1,2,1.00108136555536,1,0
"705","2",345,"bCFS","f42887_e_012",0,10,0.373719281884655,"0",1,2,5.3324734433063,1,0
"706","2",346,"bCFS","f42887_e_022",0,9,0.722467405584208,"180",1,1,1.4582882652503,1,0
"707","2",347,"bCFS","f42887_e_004",1,9,0.373719281884655,"180",1,1,2.21367357778763,1,0
"708","2",348,"bCFS","f42887_e_020",0,10,0.3,"180",1,2,8.31571996700586,1,0
"709","2",349,"bCFS","f42887_e_020",0,9,0.3,"0",1,1,1.52313812403372,1,0
"710","2",350,"bCFS","f42887_e_026",0,10,0.9,"0",1,2,1.59529778201613,1,0
"711","2",351,"bCFS","f42887_e_005",1,9,0.373719281884655,"180",1,1,1.35874990567754,1,0
"712","2",352,"bCFS","f42887_e_000",1,9,0.3,"180",1,1,1.45431410815763,1,0
"713","2",353,"bCFS","f42887_e_003",0,9,0.3,"180",1,1,4.40168405154873,1,0
"714","2",354,"bCFS","f42887_e_004",1,9,0.722467405584208,"0",1,1,1.43139381491892,1,0
"715","2",355,"bCFS","f42887_e_008",0,10,0.722467405584208,"0",1,2,1.90755991341211,1,0
"716","2",356,"bCFS","f42887_e_010",1,10,0.373719281884655,"180",1,2,1.61172935718787,1,0
"717","2",357,"bCFS","f42887_e_010",1,10,0.465553672174608,"180",1,2,2.75913830193531,1,0
"718","2",358,"bCFS","f42887_e_026",1,10,0.373719281884655,"180",1,2,2.62018680388064,1,0
"719","2",359,"bCFS","f42887_e_022",1,10,0.3,"180",1,2,1.53559740820674,1,0
"720","2",360,"bCFS","f42887_e_006",1,10,0.465553672174608,"180",1,2,2.14973810481206,1,0
"721","3",1,"bCFS","f42887_e_006",1,10,0.465553672174608,"180",1,2,0.909012079238892,1,1
"722","3",2,"bCFS","f42887_e_026",1,10,0.579954613479529,"0",1,2,1.24746012687683,1,1
"723","3",3,"bCFS","f42887_e_027",1,9,0.579954613479529,"0",1,1,0.837237119674683,1,1
"724","3",4,"bCFS","f42887_e_027",0,9,0.3,"0",1,2,1.26809644699097,0,1
"725","3",5,"bCFS","f42887_e_029",0,10,0.465553672174608,"0",1,2,1.42680883407593,1,1
"726","3",6,"bCFS","f42887_e_015",1,9,0.722467405584208,"180",1,1,1.04930472373962,1,1
"727","3",7,"bCFS","f42887_e_003",1,9,0.9,"180",1,1,1.43183016777039,1,1
"728","3",8,"bCFS","f42887_e_010",0,9,0.465553672174608,"180",1,1,1.59963274002075,1,1
"729","3",9,"bCFS","f42887_e_025",1,9,0.722467405584208,"0",1,1,1.20604944229126,1,1
"730","3",10,"bCFS","f42887_e_020",1,10,0.465553672174608,"0",1,2,1.04492616653442,1,1
"731","3",11,"bCFS","f42887_e_001",1,10,0.9,"180",1,2,1.15437698364258,1,1
"732","3",12,"bCFS","f42887_e_024",1,9,0.373719281884655,"180",1,1,1.51578259468079,1,1
"733","3",13,"bCFS","f42887_e_003",1,10,0.465553672174608,"0",1,2,1.19057106971741,1,1
"734","3",14,"bCFS","f42887_e_000",0,9,0.9,"180",1,1,1.04739618301392,1,1
"735","3",15,"bCFS","f42887_e_005",0,10,0.9,"180",1,2,1.12431907653809,1,1
"736","3",16,"bCFS","f42887_e_024",1,10,0.579954613479529,"0",1,2,1.45708012580872,1,1
"737","3",17,"bCFS","f42887_e_009",0,9,0.465553672174608,"180",1,1,1.28721833229065,1,1
"738","3",18,"bCFS","f42887_e_007",1,10,0.373719281884655,"180",1,2,3.78006553649902,1,1
"739","3",19,"bCFS","f42887_e_014",1,10,0.465553672174608,"180",1,2,1.90226125717163,1,1
"740","3",20,"bCFS","f42887_e_020",1,10,0.579954613479529,"180",1,2,1.05051565170288,1,1
"741","3",21,"bCFS","f42887_e_017",1,10,0.9,"0",1,2,1.16927409172058,1,1
"742","3",22,"bCFS","f42887_e_025",0,10,0.373719281884655,"0",1,2,1.48201036453247,1,1
"743","3",23,"bCFS","f42887_e_001",0,9,0.3,"0",1,1,1.03087949752808,1,1
"744","3",24,"bCFS","f42887_e_029",0,9,0.722467405584208,"180",1,1,0.854221105575562,1,1
"745","3",25,"bCFS","f42887_e_019",0,9,0.465553672174608,"0",1,1,1.0377779006958,1,1
"746","3",26,"bCFS","f42887_e_016",1,9,0.373719281884655,"180",1,1,1.24462223052979,1,1
"747","3",27,"bCFS","f42887_e_017",1,9,0.373719281884655,"180",1,1,1.34604692459106,1,1
"748","3",28,"bCFS","f42887_e_019",1,10,0.722467405584208,"180",1,2,1.22218155860901,1,1
"749","3",29,"bCFS","f42887_e_017",0,9,0.9,"180",1,1,1.09230661392212,1,1
"750","3",30,"bCFS","f42887_e_023",1,10,0.3,"180",1,2,1.90570473670959,1,1
"751","3",31,"bCFS","f42887_e_001",1,10,0.3,"180",1,2,2.0292854309082,1,1
"752","3",32,"bCFS","f42887_e_024",1,9,0.9,"0",1,1,0.948050022125244,1,1
"753","3",33,"bCFS","f42887_e_004",1,9,0.373719281884655,"180",1,1,1.280837059021,1,1
"754","3",34,"bCFS","f42887_e_003",1,9,0.9,"0",1,1,0.959203958511353,1,1
"755","3",35,"bCFS","f42887_e_025",1,10,0.9,"180",1,2,1.32984018325806,1,1
"756","3",36,"bCFS","f42887_e_018",1,10,0.9,"0",1,2,0.956721305847168,1,1
"757","3",37,"bCFS","f42887_e_016",0,9,0.579954613479529,"0",1,1,0.781403064727783,1,1
"758","3",38,"bCFS","f42887_e_012",0,10,0.722467405584208,"180",1,2,1.00821137428284,1,1
"759","3",39,"bCFS","f42887_e_029",1,9,0.579954613479529,"0",1,1,1.22365498542786,1,1
"760","3",40,"bCFS","f42887_e_010",0,9,0.722467405584208,"0",1,1,1.21642303466797,1,1
"761","3",41,"bCFS","f42887_e_015",0,9,0.579954613479529,"180",1,1,0.873406410217285,1,1
"762","3",42,"bCFS","f42887_e_013",1,10,0.9,"180",1,2,0.816025972366333,1,1
"763","3",43,"bCFS","f42887_e_011",0,10,0.465553672174608,"180",1,2,1.28031992912292,1,1
"764","3",44,"bCFS","f42887_e_002",0,9,0.465553672174608,"180",1,1,0.941553592681885,1,1
"765","3",45,"bCFS","f42887_e_019",0,9,0.722467405584208,"0",1,1,0.865740537643433,1,1
"766","3",46,"bCFS","f42887_e_019",0,9,0.373719281884655,"0",1,1,1.02519965171814,1,1
"767","3",47,"bCFS","f42887_e_022",0,9,0.373719281884655,"180",1,1,1.0254442691803,1,1
"768","3",48,"bCFS","f42887_e_010",1,10,0.373719281884655,"0",1,2,1.95345616340637,1,1
"769","3",49,"bCFS","f42887_e_020",1,10,0.465553672174608,"180",1,2,2.42630076408386,1,1
"770","3",50,"bCFS","f42887_e_004",0,10,0.3,"180",1,2,1.48849320411682,1,1
"771","3",51,"bCFS","f42887_e_005",0,9,0.373719281884655,"0",1,1,1.04594421386719,1,1
"772","3",52,"bCFS","f42887_e_020",0,10,0.722467405584208,"180",1,2,0.98906946182251,1,1
"773","3",53,"bCFS","f42887_e_028",1,10,0.465553672174608,"180",1,2,1.37488389015198,1,1
"774","3",54,"bCFS","f42887_e_024",0,10,0.9,"180",1,1,0.816267728805542,0,1
"775","3",55,"bCFS","f42887_e_013",0,10,0.465553672174608,"0",1,2,1.86979985237122,1,1
"776","3",56,"bCFS","f42887_e_021",0,10,0.465553672174608,"180",1,2,1.28397750854492,1,1
"777","3",57,"bCFS","f42887_e_000",1,9,0.373719281884655,"180",1,1,1.68966770172119,1,1
"778","3",58,"bCFS","f42887_e_027",0,9,0.9,"180",1,1,1.26359581947327,1,1
"779","3",59,"bCFS","f42887_e_014",1,10,0.722467405584208,"0",1,2,1.54234194755554,1,1
"780","3",60,"bCFS","f42887_e_014",0,9,0.3,"0",1,1,1.39321446418762,1,1
"781","3",61,"bCFS","f42887_e_028",1,9,0.722467405584208,"0",1,1,0.874322652816772,1,1
"782","3",62,"bCFS","f42887_e_028",1,10,0.579954613479529,"0",1,2,1.55952906608582,1,1
"783","3",63,"bCFS","f42887_e_020",1,10,0.3,"0",1,2,1.9756543636322,1,1
"784","3",64,"bCFS","f42887_e_010",0,9,0.579954613479529,"0",1,1,1.28745055198669,1,1
"785","3",65,"bCFS","f42887_e_006",0,9,0.722467405584208,"0",1,1,0.957547903060913,1,1
"786","3",66,"bCFS","f42887_e_018",1,10,0.373719281884655,"180",1,2,1.72899150848389,1,1
"787","3",67,"bCFS","f42887_e_008",1,9,0.373719281884655,"0",1,1,2.10016369819641,1,1
"788","3",68,"bCFS","f42887_e_003",1,9,0.373719281884655,"0",1,1,1.44908046722412,1,1
"789","3",69,"bCFS","f42887_e_012",1,10,0.579954613479529,"0",1,2,2.34390640258789,1,1
"790","3",70,"bCFS","f42887_e_008",0,9,0.722467405584208,"180",1,1,1.17876720428467,1,1
"791","3",71,"bCFS","f42887_e_023",0,10,0.579954613479529,"180",1,2,1.2035083770752,1,1
"792","3",72,"bCFS","f42887_e_007",1,9,0.465553672174608,"0",1,1,1.50764298439026,1,1
"793","3",73,"bCFS","f42887_e_009",0,10,0.722467405584208,"180",1,2,1.02463626861572,1,1
"794","3",74,"bCFS","f42887_e_022",0,9,0.3,"180",1,1,1.31197762489319,1,1
"795","3",75,"bCFS","f42887_e_006",1,10,0.579954613479529,"180",1,2,1.56471943855286,1,1
"796","3",76,"bCFS","f42887_e_007",1,10,0.465553672174608,"180",1,2,2.82957029342651,1,1
"797","3",77,"bCFS","f42887_e_013",1,10,0.579954613479529,"0",1,2,1.35729479789734,1,1
"798","3",78,"bCFS","f42887_e_023",1,10,0.579954613479529,"0",1,2,2.12059092521667,1,1
"799","3",79,"bCFS","f42887_e_019",1,10,0.3,"0",1,2,2.16511845588684,1,1
"800","3",80,"bCFS","f42887_e_023",0,10,0.722467405584208,"180",1,2,1.43167734146118,1,1
"801","3",81,"bCFS","f42887_e_007",0,10,0.579954613479529,"0",1,2,1.24650239944458,1,1
"802","3",82,"bCFS","f42887_e_015",0,10,0.465553672174608,"0",1,2,1.26062417030334,1,1
"803","3",83,"bCFS","f42887_e_002",1,9,0.3,"180",1,1,1.53943300247192,1,1
"804","3",84,"bCFS","f42887_e_017",1,9,0.579954613479529,"180",1,1,1.01417708396912,1,1
"805","3",85,"bCFS","f42887_e_004",0,10,0.722467405584208,"0",1,2,1.13451647758484,1,1
"806","3",86,"bCFS","f42887_e_008",0,10,0.465553672174608,"180",1,2,1.02587389945984,1,1
"807","3",87,"bCFS","f42887_e_007",0,10,0.373719281884655,"0",1,2,1.64856290817261,1,1
"808","3",88,"bCFS","f42887_e_016",1,10,0.465553672174608,"0",1,2,3.01474094390869,1,1
"809","3",89,"bCFS","f42887_e_026",1,9,0.722467405584208,"0",1,1,1.17501497268677,1,1
"810","3",90,"bCFS","f42887_e_023",1,9,0.465553672174608,"0",1,1,2.13789176940918,1,1
"811","3",91,"bCFS","f42887_e_001",1,9,0.579954613479529,"0",1,1,1.88885092735291,1,1
"812","3",92,"bCFS","f42887_e_015",0,10,0.373719281884655,"180",1,2,0.812077283859253,1,1
"813","3",93,"bCFS","f42887_e_006",0,9,0.465553672174608,"0",1,1,0.971784114837646,1,1
"814","3",94,"bCFS","f42887_e_025",0,9,0.373719281884655,"180",1,1,0.838449001312256,1,1
"815","3",95,"bCFS","f42887_e_018",0,9,0.9,"180",1,1,0.909448385238647,1,1
"816","3",96,"bCFS","f42887_e_021",1,9,0.9,"180",1,1,1.01127243041992,1,1
"817","3",97,"bCFS","f42887_e_008",0,10,0.579954613479529,"0",1,2,1.08470106124878,1,1
"818","3",98,"bCFS","f42887_e_014",0,10,0.465553672174608,"0",1,2,1.00943875312805,1,1
"819","3",99,"bCFS","f42887_e_002",1,10,0.465553672174608,"0",1,2,0.978569269180298,1,1
"820","3",100,"bCFS","f42887_e_003",0,10,0.3,"180",1,2,1.97176504135132,1,1
"821","3",101,"bCFS","f42887_e_016",0,9,0.3,"180",1,1,1.2299427986145,1,1
"822","3",102,"bCFS","f42887_e_013",1,9,0.722467405584208,"0",1,1,1.1666796207428,1,1
"823","3",103,"bCFS","f42887_e_005",1,9,0.3,"180",1,1,1.81747555732727,1,1
"824","3",104,"bCFS","f42887_e_022",0,9,0.3,"0",1,1,1.41830730438232,1,1
"825","3",105,"bCFS","f42887_e_012",1,9,0.373719281884655,"0",1,1,1.3864266872406,1,1
"826","3",106,"bCFS","f42887_e_025",0,9,0.465553672174608,"0",1,1,1.13198757171631,1,1
"827","3",107,"bCFS","f42887_e_000",0,9,0.722467405584208,"180",1,1,0.97605299949646,1,1
"828","3",108,"bCFS","f42887_e_009",1,9,0.3,"180",1,1,1.19392919540405,1,1
"829","3",109,"bCFS","f42887_e_016",1,9,0.9,"180",1,1,0.78703236579895,1,1
"830","3",110,"bCFS","f42887_e_018",1,10,0.722467405584208,"0",1,2,1.81983613967896,1,1
"831","3",111,"bCFS","f42887_e_016",0,9,0.722467405584208,"0",1,1,0.987266302108765,1,1
"832","3",112,"bCFS","f42887_e_017",1,9,0.465553672174608,"0",1,1,1.55671453475952,1,1
"833","3",113,"bCFS","f42887_e_023",0,9,0.465553672174608,"180",1,1,1.05592370033264,1,1
"834","3",114,"bCFS","f42887_e_012",1,10,0.465553672174608,"0",1,2,1.76529216766357,1,1
"835","3",115,"bCFS","f42887_e_017",1,9,0.722467405584208,"0",1,1,0.790565490722656,1,1
"836","3",116,"bCFS","f42887_e_007",1,10,0.3,"0",1,1,1.12754845619202,0,1
"837","3",117,"bCFS","f42887_e_015",1,10,0.9,"0",1,2,0.948066234588623,1,1
"838","3",118,"bCFS","f42887_e_026",0,10,0.373719281884655,"0",1,1,0.718369960784912,0,1
"839","3",119,"bCFS","f42887_e_014",1,10,0.9,"180",1,2,1.00918126106262,1,1
"840","3",120,"bCFS","f42887_e_006",0,10,0.9,"0",1,2,0.863807916641235,1,1
"841","3",121,"bCFS","f42887_e_023",1,9,0.373719281884655,"180",1,1,1.39547753334045,1,1
"842","3",122,"bCFS","f42887_e_018",1,9,0.722467405584208,"180",1,1,0.868660449981689,1,1
"843","3",123,"bCFS","f42887_e_020",0,9,0.579954613479529,"0",1,1,0.939635753631592,1,1
"844","3",124,"bCFS","f42887_e_020",0,9,0.373719281884655,"180",1,1,1.15963435173035,1,1
"845","3",125,"bCFS","f42887_e_011",0,9,0.373719281884655,"180",1,1,1.17064642906189,1,1
"846","3",126,"bCFS","f42887_e_020",0,9,0.3,"180",1,1,1.13271999359131,1,1
"847","3",127,"bCFS","f42887_e_022",0,10,0.722467405584208,"0",1,2,0.823928117752075,1,1
"848","3",128,"bCFS","f42887_e_022",0,9,0.465553672174608,"0",1,1,1.05346941947937,1,1
"849","3",129,"bCFS","f42887_e_002",1,9,0.3,"0",1,1,1.411541223526,1,1
"850","3",130,"bCFS","f42887_e_024",0,9,0.3,"180",1,1,1.45977377891541,1,1
"851","3",131,"bCFS","f42887_e_028",1,10,0.3,"0",1,2,1.92997455596924,1,1
"852","3",132,"bCFS","f42887_e_014",1,10,0.3,"180",1,2,1.4994945526123,1,1
"853","3",133,"bCFS","f42887_e_021",0,10,0.373719281884655,"180",1,2,1.76681160926819,1,1
"854","3",134,"bCFS","f42887_e_025",0,9,0.579954613479529,"180",1,1,1.96631336212158,1,1
"855","3",135,"bCFS","f42887_e_006",1,10,0.373719281884655,"0",1,2,2.13713693618774,1,1
"856","3",136,"bCFS","f42887_e_013",1,9,0.3,"0",1,1,1.76342964172363,1,1
"857","3",137,"bCFS","f42887_e_003",1,10,0.579954613479529,"0",1,2,1.2862536907196,1,1
"858","3",138,"bCFS","f42887_e_001",1,10,0.373719281884655,"0",1,2,1.74706554412842,1,1
"859","3",139,"bCFS","f42887_e_004",0,10,0.373719281884655,"0",1,2,1.62189340591431,1,1
"860","3",140,"bCFS","f42887_e_007",1,10,0.9,"0",1,2,1.7026698589325,1,1
"861","3",141,"bCFS","f42887_e_018",0,10,0.373719281884655,"0",1,2,1.41953825950623,1,1
"862","3",142,"bCFS","f42887_e_010",0,10,0.722467405584208,"180",1,2,0.843614339828491,1,1
"863","3",143,"bCFS","f42887_e_006",0,9,0.3,"0",1,1,1.09848356246948,1,1
"864","3",144,"bCFS","f42887_e_006",0,9,0.3,"180",1,1,1.75796580314636,1,1
"865","3",145,"bCFS","f42887_e_010",1,9,0.3,"180",1,2,1.9608199596405,0,1
"866","3",146,"bCFS","f42887_e_003",1,9,0.3,"0",1,1,4.29770374298096,1,1
"867","3",147,"bCFS","f42887_e_006",0,9,0.373719281884655,"180",1,1,1.23917126655579,1,1
"868","3",148,"bCFS","f42887_e_027",1,9,0.722467405584208,"0",1,1,2.24671006202698,1,1
"869","3",149,"bCFS","f42887_e_000",0,10,0.3,"0",1,2,1.54949808120728,1,1
"870","3",150,"bCFS","f42887_e_015",0,9,0.9,"180",1,1,1.00638604164124,1,1
"871","3",151,"bCFS","f42887_e_008",1,9,0.9,"0",1,1,1.02177810668945,1,1
"872","3",152,"bCFS","f42887_e_005",0,9,0.722467405584208,"0",1,1,1.07063102722168,1,1
"873","3",153,"bCFS","f42887_e_005",1,10,0.579954613479529,"0",1,2,3.09271931648254,1,1
"874","3",154,"bCFS","f42887_e_023",1,10,0.373719281884655,"0",1,2,1.24033427238464,1,1
"875","3",155,"bCFS","f42887_e_010",1,9,0.579954613479529,"180",1,1,0.967926502227783,1,1
"876","3",156,"bCFS","f42887_e_005",1,9,0.579954613479529,"180",1,1,1.33790946006775,1,1
"877","3",157,"bCFS","f42887_e_013",0,10,0.465553672174608,"180",1,2,1.22206425666809,1,1
"878","3",158,"bCFS","f42887_e_000",0,10,0.373719281884655,"0",1,2,1.00619029998779,1,1
"879","3",159,"bCFS","f42887_e_009",1,10,0.373719281884655,"180",1,2,1.42298769950867,1,1
"880","3",160,"bCFS","f42887_e_006",1,10,0.722467405584208,"180",1,2,1.59049439430237,1,1
"881","3",161,"bCFS","f42887_e_015",1,10,0.722467405584208,"0",1,2,2.48002290725708,1,1
"882","3",162,"bCFS","f42887_e_001",0,10,0.722467405584208,"180",1,2,0.99739670753479,1,1
"883","3",163,"bCFS","f42887_e_004",1,9,0.9,"180",1,1,0.918274402618408,1,1
"884","3",164,"bCFS","f42887_e_025",1,9,0.579954613479529,"0",1,1,1.29839396476746,1,1
"885","3",165,"bCFS","f42887_e_019",1,10,0.3,"180",1,2,1.75123977661133,1,1
"886","3",166,"bCFS","f42887_e_028",1,10,0.465553672174608,"0",1,2,1.66539430618286,1,1
"887","3",167,"bCFS","f42887_e_016",0,10,0.373719281884655,"0",1,2,1.11152720451355,1,1
"888","3",168,"bCFS","f42887_e_018",0,9,0.465553672174608,"0",1,1,0.899637937545776,1,1
"889","3",169,"bCFS","f42887_e_007",1,10,0.3,"180",1,2,1.30510234832764,1,1
"890","3",170,"bCFS","f42887_e_016",1,9,0.722467405584208,"180",1,1,0.907186985015869,1,1
"891","3",171,"bCFS","f42887_e_002",0,9,0.9,"0",1,1,0.871937274932861,1,1
"892","3",172,"bCFS","f42887_e_028",0,10,0.373719281884655,"0",1,2,1.30206418037415,1,1
"893","3",173,"bCFS","f42887_e_021",0,10,0.579954613479529,"180",1,2,1.04352188110352,1,1
"894","3",174,"bCFS","f42887_e_008",1,9,0.465553672174608,"0",1,1,1.13040471076965,1,1
"895","3",175,"bCFS","f42887_e_021",0,9,0.722467405584208,"0",1,1,1.08520007133484,1,1
"896","3",176,"bCFS","f42887_e_027",0,9,0.9,"0",1,1,0.945926189422607,1,1
"897","3",177,"bCFS","f42887_e_028",1,10,0.9,"0",1,2,0.893470764160156,1,1
"898","3",178,"bCFS","f42887_e_012",1,9,0.9,"180",1,1,0.928894281387329,1,1
"899","3",179,"bCFS","f42887_e_014",0,10,0.722467405584208,"180",1,2,0.900257110595703,1,1
"900","3",180,"bCFS","f42887_e_002",1,10,0.722467405584208,"0",1,2,1.08784890174866,1,1
"901","3",181,"bCFS","f42887_e_026",0,10,0.373719281884655,"180",1,2,0.944598913192749,1,1
"902","3",182,"bCFS","f42887_e_011",0,9,0.579954613479529,"180",1,1,1.33945918083191,1,1
"903","3",183,"bCFS","f42887_e_024",0,10,0.722467405584208,"0",1,2,0.878185749053955,1,1
"904","3",184,"bCFS","f42887_e_025",1,9,0.9,"0",1,1,0.85960054397583,1,1
"905","3",185,"bCFS","f42887_e_011",1,10,0.579954613479529,"0",1,2,0.849730253219604,1,1
"906","3",186,"bCFS","f42887_e_012",0,9,0.3,"180",1,2,1.04858350753784,0,1
"907","3",187,"bCFS","f42887_e_002",0,9,0.579954613479529,"0",1,1,1.07929682731628,1,1
"908","3",188,"bCFS","f42887_e_010",1,9,0.9,"0",1,1,0.932852983474731,1,1
"909","3",189,"bCFS","f42887_e_017",1,9,0.373719281884655,"0",1,1,1.37514615058899,1,1
"910","3",190,"bCFS","f42887_e_002",1,10,0.373719281884655,"0",1,2,1.51441526412964,1,1
"911","3",191,"bCFS","f42887_e_003",0,9,0.579954613479529,"180",1,1,1.21343874931335,1,1
"912","3",192,"bCFS","f42887_e_020",1,9,0.722467405584208,"0",1,1,1.46069622039795,1,1
"913","3",193,"bCFS","f42887_e_015",0,10,0.465553672174608,"180",1,2,1.09750509262085,1,1
"914","3",194,"bCFS","f42887_e_022",0,9,0.722467405584208,"180",1,1,1.1168999671936,1,1
"915","3",195,"bCFS","f42887_e_024",1,9,0.465553672174608,"180",1,1,1.32805418968201,1,1
"916","3",196,"bCFS","f42887_e_007",1,9,0.722467405584208,"180",1,1,0.963906288146973,1,1
"917","3",197,"bCFS","f42887_e_013",1,9,0.722467405584208,"180",1,1,0.957427740097046,1,1
"918","3",198,"bCFS","f42887_e_023",0,10,0.3,"0",1,2,1.23214507102966,1,1
"919","3",199,"bCFS","f42887_e_013",1,9,0.9,"0",1,1,0.830217361450195,1,1
"920","3",200,"bCFS","f42887_e_000",0,10,0.579954613479529,"0",1,2,1.07172846794128,1,1
"921","3",201,"bCFS","f42887_e_027",1,9,0.373719281884655,"180",1,1,1.25281405448914,1,1
"922","3",202,"bCFS","f42887_e_027",1,9,0.3,"180",1,1,1.25865912437439,1,1
"923","3",203,"bCFS","f42887_e_005",0,10,0.3,"0",1,2,1.53806710243225,1,1
"924","3",204,"bCFS","f42887_e_015",1,10,0.579954613479529,"0",1,2,1.13227391242981,1,1
"925","3",205,"bCFS","f42887_e_026",0,9,0.3,"0",1,1,1.27904725074768,1,1
"926","3",206,"bCFS","f42887_e_000",0,10,0.722467405584208,"0",1,2,0.845178604125977,1,1
"927","3",207,"bCFS","f42887_e_011",0,10,0.722467405584208,"180",1,2,0.931324481964111,1,1
"928","3",208,"bCFS","f42887_e_017",0,9,0.3,"0",1,1,1.15472340583801,1,1
"929","3",209,"bCFS","f42887_e_027",0,9,0.465553672174608,"0",1,1,0.909588575363159,1,1
"930","3",210,"bCFS","f42887_e_010",1,9,0.9,"180",1,1,0.850355863571167,1,1
"931","3",211,"bCFS","f42887_e_003",0,10,0.373719281884655,"180",1,2,1.18508076667786,1,1
"932","3",212,"bCFS","f42887_e_021",0,10,0.465553672174608,"0",1,2,0.920610666275024,1,1
"933","3",213,"bCFS","f42887_e_029",1,9,0.579954613479529,"180",1,1,1.24265241622925,1,1
"934","3",214,"bCFS","f42887_e_004",1,9,0.9,"0",1,1,0.824965953826904,1,1
"935","3",215,"bCFS","f42887_e_029",0,9,0.373719281884655,"0",1,1,1.0089123249054,1,1
"936","3",216,"bCFS","f42887_e_000",0,10,0.9,"0",1,2,0.817784547805786,1,1
"937","3",217,"bCFS","f42887_e_028",1,10,0.722467405584208,"180",1,2,2.11990237236023,1,1
"938","3",218,"bCFS","f42887_e_004",0,10,0.722467405584208,"180",1,2,0.961471557617188,1,1
"939","3",219,"bCFS","f42887_e_014",0,9,0.579954613479529,"180",1,1,1.10552597045898,1,1
"940","3",220,"bCFS","f42887_e_014",1,9,0.373719281884655,"180",1,1,1.85433125495911,1,1
"941","3",221,"bCFS","f42887_e_027",0,10,0.722467405584208,"180",1,2,1.27643179893494,1,1
"942","3",222,"bCFS","f42887_e_009",1,10,0.9,"0",1,2,2.5512752532959,1,1
"943","3",223,"bCFS","f42887_e_018",0,9,0.579954613479529,"180",1,1,1.23284912109375,1,1
"944","3",224,"bCFS","f42887_e_028",0,9,0.3,"180",1,1,1.15965008735657,1,1
"945","3",225,"bCFS","f42887_e_008",1,9,0.3,"180",1,1,2.01768755912781,1,1
"946","3",226,"bCFS","f42887_e_012",0,10,0.465553672174608,"180",1,2,1.09595847129822,1,1
"947","3",227,"bCFS","f42887_e_014",1,10,0.579954613479529,"0",1,2,1.61158728599548,1,1
"948","3",228,"bCFS","f42887_e_013",1,10,0.373719281884655,"0",1,2,1.38491821289062,1,1
"949","3",229,"bCFS","f42887_e_000",1,9,0.3,"180",1,1,1.25636076927185,1,1
"950","3",230,"bCFS","f42887_e_009",0,10,0.3,"0",1,2,1.12681913375854,1,1
"951","3",231,"bCFS","f42887_e_009",0,9,0.465553672174608,"0",1,1,1.34536337852478,1,1
"952","3",232,"bCFS","f42887_e_016",1,10,0.465553672174608,"180",1,2,2.45948886871338,1,1
"953","3",233,"bCFS","f42887_e_008",0,9,0.722467405584208,"0",1,1,0.815880298614502,1,1
"954","3",234,"bCFS","f42887_e_011",0,10,0.9,"180",1,2,0.85375452041626,1,1
"955","3",235,"bCFS","f42887_e_025",1,10,0.3,"180",1,2,2.48386240005493,1,1
"956","3",236,"bCFS","f42887_e_017",0,9,0.579954613479529,"0",1,1,1.27282953262329,1,1
"957","3",237,"bCFS","f42887_e_011",0,10,0.3,"180",1,2,1.84558629989624,1,1
"958","3",238,"bCFS","f42887_e_026",0,10,0.722467405584208,"180",1,2,1.23301529884338,1,1
"959","3",239,"bCFS","f42887_e_009",0,9,0.722467405584208,"0",1,1,0.798554182052612,1,1
"960","3",240,"bCFS","f42887_e_028",0,9,0.9,"180",1,1,1.06260514259338,1,1
"961","3",241,"bCFS","f42887_e_007",1,10,0.722467405584208,"0",1,2,1.25362110137939,1,1
"962","3",242,"bCFS","f42887_e_026",0,9,0.9,"180",1,1,0.826285362243652,1,1
"963","3",243,"bCFS","f42887_e_028",1,9,0.373719281884655,"180",1,1,0.979101657867432,1,1
"964","3",244,"bCFS","f42887_e_019",1,9,0.579954613479529,"180",1,1,1.14124536514282,1,1
"965","3",245,"bCFS","f42887_e_003",1,10,0.465553672174608,"180",1,2,1.54458665847778,1,1
"966","3",246,"bCFS","f42887_e_012",1,9,0.722467405584208,"0",1,1,1.23405027389526,1,1
"967","3",247,"bCFS","f42887_e_009",1,9,0.579954613479529,"0",1,1,0.977520227432251,1,1
"968","3",248,"bCFS","f42887_e_026",0,9,0.9,"0",1,1,0.866308212280273,1,1
"969","3",249,"bCFS","f42887_e_008",0,9,0.3,"0",1,2,1.08047032356262,0,1
"970","3",250,"bCFS","f42887_e_006",1,10,0.579954613479529,"0",1,2,1.04466009140015,1,1
"971","3",251,"bCFS","f42887_e_010",0,9,0.373719281884655,"180",1,1,1.28934550285339,1,1
"972","3",252,"bCFS","f42887_e_019",1,9,0.373719281884655,"180",1,1,1.55827140808105,1,1
"973","3",253,"bCFS","f42887_e_010",0,10,0.465553672174608,"0",1,2,1.42594456672668,1,1
"974","3",254,"bCFS","f42887_e_022",1,10,0.9,"0",1,2,1.6158447265625,1,1
"975","3",255,"bCFS","f42887_e_029",1,10,0.3,"180",1,2,1.7012631893158,1,1
"976","3",256,"bCFS","f42887_e_029",0,10,0.722467405584208,"0",1,2,1.10543966293335,1,1
"977","3",257,"bCFS","f42887_e_013",0,9,0.579954613479529,"180",1,1,1.10763669013977,1,1
"978","3",258,"bCFS","f42887_e_012",1,10,0.3,"0",1,2,1.32844018936157,1,1
"979","3",259,"bCFS","f42887_e_020",1,10,0.373719281884655,"0",1,2,2.59420800209045,1,1
"980","3",260,"bCFS","f42887_e_001",0,10,0.465553672174608,"0",1,2,1.08876967430115,1,1
"981","3",261,"bCFS","f42887_e_018",1,10,0.3,"180",1,2,2.10023427009583,1,1
"982","3",262,"bCFS","f42887_e_008",1,10,0.579954613479529,"180",1,2,1.42510414123535,1,1
"983","3",263,"bCFS","f42887_e_019",0,10,0.9,"0",1,2,1.15188145637512,1,1
"984","3",264,"bCFS","f42887_e_025",1,10,0.3,"0",1,2,1.52169442176819,1,1
"985","3",265,"bCFS","f42887_e_001",0,10,0.9,"0",1,2,0.868161201477051,1,1
"986","3",266,"bCFS","f42887_e_019",0,9,0.579954613479529,"0",1,1,1.05093884468079,1,1
"987","3",267,"bCFS","f42887_e_002",0,10,0.579954613479529,"180",1,2,1.10580158233643,1,1
"988","3",268,"bCFS","f42887_e_019",1,10,0.9,"180",1,2,1.92464971542358,1,1
"989","3",269,"bCFS","f42887_e_005",1,9,0.373719281884655,"180",1,1,1.3500828742981,1,1
"990","3",270,"bCFS","f42887_e_017",1,9,0.465553672174608,"180",1,1,1.27215671539307,1,1
"991","3",271,"bCFS","f42887_e_001",0,10,0.579954613479529,"180",1,2,1.30952119827271,1,1
"992","3",272,"bCFS","f42887_e_027",0,9,0.579954613479529,"180",1,1,1.02505493164062,1,1
"993","3",273,"bCFS","f42887_e_018",0,10,0.3,"0",1,2,1.15325379371643,1,1
"994","3",274,"bCFS","f42887_e_001",1,10,0.722467405584208,"0",1,2,1.25123524665833,1,1
"995","3",275,"bCFS","f42887_e_017",1,9,0.3,"180",1,1,1.54482436180115,1,1
"996","3",276,"bCFS","f42887_e_005",0,9,0.465553672174608,"0",1,1,0.883596181869507,1,1
"997","3",277,"bCFS","f42887_e_023",1,9,0.722467405584208,"0",1,1,0.945668458938599,1,1
"998","3",278,"bCFS","f42887_e_025",0,10,0.465553672174608,"180",1,2,1.21983480453491,1,1
"999","3",279,"bCFS","f42887_e_004",1,10,0.579954613479529,"0",1,2,1.28257298469543,1,1
"1000","3",280,"bCFS","f42887_e_015",0,10,0.3,"180",1,2,1.10277652740479,1,1
"1001","3",281,"bCFS","f42887_e_005",0,9,0.465553672174608,"180",1,1,1.01883816719055,1,1
"1002","3",282,"bCFS","f42887_e_029",1,9,0.465553672174608,"180",1,1,1.49094414710999,1,1
"1003","3",283,"bCFS","f42887_e_002",0,9,0.722467405584208,"180",1,1,1.08855223655701,1,1
"1004","3",284,"bCFS","f42887_e_021",1,10,0.373719281884655,"0",1,2,2.47792172431946,1,1
"1005","3",285,"bCFS","f42887_e_024",0,10,0.373719281884655,"0",1,2,1.06675434112549,1,1
"1006","3",286,"bCFS","f42887_e_026",1,9,0.465553672174608,"0",1,1,1.7750518321991,1,1
"1007","3",287,"bCFS","f42887_e_022",1,9,0.465553672174608,"180",1,1,1.30578875541687,1,1
"1008","3",288,"bCFS","f42887_e_023",1,10,0.9,"180",1,2,0.933897972106934,1,1
"1009","3",289,"bCFS","f42887_e_025",1,9,0.722467405584208,"180",1,1,0.905389785766602,1,1
"1010","3",290,"bCFS","f42887_e_029",1,10,0.3,"0",1,1,1.1575129032135,0,1
"1011","3",291,"bCFS","f42887_e_021",1,10,0.3,"180",1,2,5.47296547889709,1,1
"1012","3",292,"bCFS","f42887_e_012",0,9,0.373719281884655,"180",1,1,2.07877802848816,1,1
"1013","3",293,"bCFS","f42887_e_013",0,10,0.3,"180",1,2,4.90015816688538,1,1
"1014","3",294,"bCFS","f42887_e_000",0,9,0.465553672174608,"180",1,1,2.67991995811462,1,1
"1015","3",295,"bCFS","f42887_e_001",1,10,0.465553672174608,"180",1,2,1.83077263832092,1,1
"1016","3",296,"bCFS","f42887_e_012",1,9,0.9,"0",1,1,0.974637269973755,1,1
"1017","3",297,"bCFS","f42887_e_018",0,10,0.465553672174608,"180",1,2,1.09570503234863,1,1
"1018","3",298,"bCFS","f42887_e_015",0,10,0.3,"0",1,2,1.65985369682312,1,1
"1019","3",299,"bCFS","f42887_e_022",0,9,0.579954613479529,"0",1,1,1.51403713226318,1,1
"1020","3",300,"bCFS","f42887_e_001",0,10,0.373719281884655,"180",1,2,2.21409630775452,1,1
"1021","3",301,"bCFS","f42887_e_016",0,9,0.9,"0",1,1,1.08699870109558,1,1
"1022","3",302,"bCFS","f42887_e_011",0,9,0.3,"0",1,1,1.01239418983459,1,1
"1023","3",303,"bCFS","f42887_e_016",1,9,0.579954613479529,"180",1,1,1.37265133857727,1,1
"1024","3",304,"bCFS","f42887_e_017",1,9,0.722467405584208,"180",1,1,1.00799179077148,1,1
"1025","3",305,"bCFS","f42887_e_029",0,9,0.9,"0",1,1,1.03084349632263,1,1
"1026","3",306,"bCFS","f42887_e_009",0,9,0.9,"180",1,1,1.00564742088318,1,1
"1027","3",307,"bCFS","f42887_e_008",0,10,0.9,"180",1,2,0.893190383911133,1,1
"1028","3",308,"bCFS","f42887_e_005",1,10,0.9,"0",1,2,1.08860492706299,1,1
"1029","3",309,"bCFS","f42887_e_018",1,10,0.579954613479529,"0",1,2,1.52402758598328,1,1
"1030","3",310,"bCFS","f42887_e_003",0,10,0.722467405584208,"0",1,2,0.988839149475098,1,1
"1031","3",311,"bCFS","f42887_e_002",1,10,0.373719281884655,"180",1,2,1.53162956237793,1,1
"1032","3",312,"bCFS","f42887_e_004",1,9,0.579954613479529,"180",1,1,0.879104375839233,1,1
"1033","3",313,"bCFS","f42887_e_009",0,10,0.579954613479529,"180",1,2,1.04482436180115,1,1
"1034","3",314,"bCFS","f42887_e_027",0,9,0.465553672174608,"180",1,1,2.16202998161316,1,1
"1035","3",315,"bCFS","f42887_e_005",1,9,0.722467405584208,"180",1,1,1.84429001808167,1,1
"1036","3",316,"bCFS","f42887_e_009",1,10,0.373719281884655,"0",1,2,1.59504532814026,1,1
"1037","3",317,"bCFS","f42887_e_023",0,10,0.9,"0",1,2,0.84976053237915,1,1
"1038","3",318,"bCFS","f42887_e_011",0,9,0.722467405584208,"0",1,1,0.8626868724823,1,1
"1039","3",319,"bCFS","f42887_e_004",0,9,0.465553672174608,"180",1,1,1.29276514053345,1,1
"1040","3",320,"bCFS","f42887_e_024",0,10,0.579954613479529,"180",1,2,1.19357752799988,1,1
"1041","3",321,"bCFS","f42887_e_014",1,10,0.373719281884655,"0",1,2,1.21701335906982,1,1
"1042","3",322,"bCFS","f42887_e_026",0,10,0.3,"180",1,2,2.47047805786133,1,1
"1043","3",323,"bCFS","f42887_e_011",0,9,0.465553672174608,"0",1,1,1.0202271938324,1,1
"1044","3",324,"bCFS","f42887_e_022",0,10,0.9,"180",1,2,1.09218716621399,1,1
"1045","3",325,"bCFS","f42887_e_021",0,10,0.579954613479529,"0",1,2,0.942308187484741,1,1
"1046","3",326,"bCFS","f42887_e_022",1,9,0.373719281884655,"0",1,1,1.38236331939697,1,1
"1047","3",327,"bCFS","f42887_e_026",0,10,0.465553672174608,"180",1,2,0.968032360076904,1,1
"1048","3",328,"bCFS","f42887_e_019",0,9,0.465553672174608,"180",1,2,0.872191429138184,0,1
"1049","3",329,"bCFS","f42887_e_016",1,10,0.3,"0",1,1,2.66939926147461,0,1
"1050","3",330,"bCFS","f42887_e_015",1,9,0.373719281884655,"0",1,1,1.01101779937744,1,1
"1051","3",331,"bCFS","f42887_e_010",1,9,0.3,"0",1,1,0.979812145233154,1,1
"1052","3",332,"bCFS","f42887_e_020",0,10,0.9,"180",1,2,0.973176956176758,1,1
"1053","3",333,"bCFS","f42887_e_022",1,9,0.579954613479529,"180",1,1,1.13278222084045,1,1
"1054","3",334,"bCFS","f42887_e_014",0,10,0.9,"0",1,2,1.04809784889221,1,1
"1055","3",335,"bCFS","f42887_e_002",0,10,0.9,"180",1,2,0.727631092071533,1,1
"1056","3",336,"bCFS","f42887_e_012",1,10,0.579954613479529,"180",1,2,0.995080709457397,1,1
"1057","3",337,"bCFS","f42887_e_006",0,9,0.9,"180",1,1,0.907201766967773,1,1
"1058","3",338,"bCFS","f42887_e_021",0,10,0.9,"0",1,2,0.871256351470947,1,1
"1059","3",339,"bCFS","f42887_e_026",0,10,0.579954613479529,"180",1,2,1.19604253768921,1,1
"1060","3",340,"bCFS","f42887_e_029",1,10,0.9,"180",1,2,1.03630828857422,1,1
"1061","3",341,"bCFS","f42887_e_020",1,9,0.9,"0",1,1,1.18636631965637,1,1
"1062","3",342,"bCFS","f42887_e_000",1,9,0.579954613479529,"180",1,1,1.11450695991516,1,1
"1063","3",343,"bCFS","f42887_e_021",0,10,0.3,"0",1,2,1.04655599594116,1,1
"1064","3",344,"bCFS","f42887_e_024",0,10,0.722467405584208,"180",1,2,0.820754289627075,1,1
"1065","3",345,"bCFS","f42887_e_007",0,10,0.9,"180",1,2,0.700791358947754,1,1
"1066","3",346,"bCFS","f42887_e_024",1,9,0.465553672174608,"0",1,1,1.47956418991089,1,1
"1067","3",347,"bCFS","f42887_e_011",0,10,0.9,"0",1,2,1.06049227714539,1,1
"1068","3",348,"bCFS","f42887_e_024",0,9,0.3,"0",1,1,1.33592247962952,1,1
"1069","3",349,"bCFS","f42887_e_004",0,9,0.3,"0",1,2,0.658042192459106,0,1
"1070","3",350,"bCFS","f42887_e_000",1,9,0.465553672174608,"0",1,1,1.35815834999084,1,1
"1071","3",351,"bCFS","f42887_e_027",1,10,0.373719281884655,"0",1,2,2.53588652610779,1,1
"1072","3",352,"bCFS","f42887_e_004",1,9,0.465553672174608,"0",1,1,2.03312015533447,1,1
"1073","3",353,"bCFS","f42887_e_003",1,10,0.722467405584208,"180",1,2,1.41670823097229,1,1
"1074","3",354,"bCFS","f42887_e_029",0,10,0.373719281884655,"180",1,2,1.31089520454407,1,1
"1075","3",355,"bCFS","f42887_e_028",1,9,0.579954613479529,"180",1,1,1.03300786018372,1,1
"1076","3",356,"bCFS","f42887_e_008",1,9,0.373719281884655,"180",1,1,1.631840467453,1,1
"1077","3",357,"bCFS","f42887_e_013",0,9,0.373719281884655,"180",1,1,1.25521206855774,1,1
"1078","3",358,"bCFS","f42887_e_021",0,10,0.722467405584208,"180",1,2,1.14934897422791,1,1
"1079","3",359,"bCFS","f42887_e_011",1,9,0.373719281884655,"0",1,1,1.12559342384338,1,1
"1080","3",360,"bCFS","f42887_e_007",1,10,0.579954613479529,"180",1,2,4.56762957572937,1,1
"1081","4",1,"bCFS","f42887_e_026",1,10,0.9,"0",1,2,1.21219110488892,1,0
"1082","4",2,"bCFS","f42887_e_010",0,9,0.579954613479529,"180",1,1,2.17964386940002,1,0
"1083","4",3,"bCFS","f42887_e_026",1,9,0.579954613479529,"180",1,1,1.91728043556213,1,0
"1084","4",4,"bCFS","f42887_e_023",1,10,0.579954613479529,"180",1,2,1.04191565513611,1,0
"1085","4",5,"bCFS","f42887_e_018",0,9,0.722467405584208,"0",1,2,2.85013556480408,0,0
"1086","4",6,"bCFS","f42887_e_014",0,9,0.3,"180",1,1,1.19170928001404,1,0
"1087","4",7,"bCFS","f42887_e_006",1,10,0.579954613479529,"180",1,2,6.33801627159119,1,0
"1088","4",8,"bCFS","f42887_e_021",1,10,0.579954613479529,"180",1,2,1.0295672416687,1,0
"1089","4",9,"bCFS","f42887_e_027",1,9,0.722467405584208,"0",1,1,1.15698456764221,1,0
"1090","4",10,"bCFS","f42887_e_002",0,9,0.722467405584208,"180",1,1,2.27183508872986,1,0
"1091","4",11,"bCFS","f42887_e_016",0,9,0.722467405584208,"0",1,1,1.08666014671326,1,0
"1092","4",12,"bCFS","f42887_e_027",1,9,0.373719281884655,"180",1,1,0.812035083770752,1,0
"1093","4",13,"bCFS","f42887_e_006",0,9,0.3,"180",1,2,1.50891160964966,0,0
"1094","4",14,"bCFS","f42887_e_014",1,9,0.3,"0",1,1,3.0264310836792,1,0
"1095","4",15,"bCFS","f42887_e_024",0,9,0.722467405584208,"180",1,1,3.11529159545898,1,0
"1096","4",16,"bCFS","f42887_e_006",1,9,0.465553672174608,"0",1,1,0.78502345085144,1,0
"1097","4",17,"bCFS","f42887_e_001",0,10,0.9,"180",1,2,0.73898458480835,1,0
"1098","4",18,"bCFS","f42887_e_008",0,10,0.722467405584208,"180",1,2,0.796655416488647,1,0
"1099","4",19,"bCFS","f42887_e_005",0,10,0.722467405584208,"0",1,2,1.09250354766846,1,0
"1100","4",20,"bCFS","f42887_e_022",1,9,0.3,"0",1,1,0.769220113754272,1,0
"1101","4",21,"bCFS","f42887_e_009",1,10,0.722467405584208,"180",1,2,0.619748830795288,1,0
"1102","4",22,"bCFS","f42887_e_014",0,10,0.373719281884655,"180",1,2,0.900098085403442,1,0
"1103","4",23,"bCFS","f42887_e_012",0,10,0.3,"180",1,2,1.13714933395386,1,0
"1104","4",24,"bCFS","f42887_e_019",0,9,0.9,"0",1,2,0.915087938308716,0,0
"1105","4",25,"bCFS","f42887_e_029",1,9,0.9,"0",1,1,0.671926259994507,1,0
"1106","4",26,"bCFS","f42887_e_010",0,9,0.465553672174608,"180",1,1,1.15895199775696,1,0
"1107","4",27,"bCFS","f42887_e_013",1,9,0.373719281884655,"0",1,1,0.665443181991577,1,0
"1108","4",28,"bCFS","f42887_e_022",0,9,0.373719281884655,"0",1,1,1.48888874053955,1,0
"1109","4",29,"bCFS","f42887_e_029",0,9,0.373719281884655,"0",1,1,1.03896307945251,1,0
"1110","4",30,"bCFS","f42887_e_011",0,10,0.465553672174608,"180",1,2,0.824483633041382,1,0
"1111","4",31,"bCFS","f42887_e_012",1,10,0.373719281884655,"0",1,2,0.856593370437622,1,0
"1112","4",32,"bCFS","f42887_e_018",1,9,0.373719281884655,"180",1,1,0.624078273773193,1,0
"1113","4",33,"bCFS","f42887_e_028",0,9,0.9,"180",1,1,0.864805221557617,1,0
"1114","4",34,"bCFS","f42887_e_018",0,10,0.9,"0",1,2,0.727545499801636,1,0
"1115","4",35,"bCFS","f42887_e_012",1,9,0.722467405584208,"180",1,1,0.594355344772339,1,0
"1116","4",36,"bCFS","f42887_e_012",1,9,0.9,"180",1,1,0.589118480682373,1,0
"1117","4",37,"bCFS","f42887_e_020",0,10,0.9,"0",1,2,0.632552146911621,1,0
"1118","4",38,"bCFS","f42887_e_025",1,10,0.722467405584208,"0",1,2,0.663983583450317,1,0
"1119","4",39,"bCFS","f42887_e_013",0,10,0.579954613479529,"0",1,2,0.814812898635864,1,0
"1120","4",40,"bCFS","f42887_e_001",0,10,0.722467405584208,"180",1,2,0.783579349517822,1,0
"1121","4",41,"bCFS","f42887_e_027",0,9,0.465553672174608,"180",1,1,1.11289763450623,1,0
"1122","4",42,"bCFS","f42887_e_007",1,9,0.722467405584208,"0",1,1,0.638366937637329,1,0
"1123","4",43,"bCFS","f42887_e_014",1,9,0.722467405584208,"180",1,1,0.935226202011108,1,0
"1124","4",44,"bCFS","f42887_e_023",0,10,0.465553672174608,"180",1,2,0.747901916503906,1,0
"1125","4",45,"bCFS","f42887_e_012",0,10,0.579954613479529,"0",1,2,0.71094822883606,1,0
"1126","4",46,"bCFS","f42887_e_011",0,10,0.9,"180",1,2,0.627537965774536,1,0
"1127","4",47,"bCFS","f42887_e_001",0,9,0.373719281884655,"0",1,1,1.50774621963501,1,0
"1128","4",48,"bCFS","f42887_e_003",0,10,0.465553672174608,"0",1,2,0.80133843421936,1,0
"1129","4",49,"bCFS","f42887_e_011",0,9,0.579954613479529,"0",1,1,1.04990458488464,1,0
"1130","4",50,"bCFS","f42887_e_001",0,10,0.3,"180",1,2,0.865270376205444,1,0
"1131","4",51,"bCFS","f42887_e_021",0,10,0.373719281884655,"0",1,2,0.926789045333862,1,0
"1132","4",52,"bCFS","f42887_e_020",1,9,0.373719281884655,"180",1,1,2.40283584594727,1,0
"1133","4",53,"bCFS","f42887_e_014",0,9,0.579954613479529,"0",1,1,1.20447421073914,1,0
"1134","4",54,"bCFS","f42887_e_003",1,10,0.373719281884655,"180",1,2,2.79794216156006,1,0
"1135","4",55,"bCFS","f42887_e_020",0,9,0.722467405584208,"180",1,1,2.5187783241272,1,0
"1136","4",56,"bCFS","f42887_e_019",0,10,0.3,"180",1,2,1.48368096351624,1,0
"1137","4",57,"bCFS","f42887_e_008",1,10,0.9,"180",1,2,1.06449484825134,1,0
"1138","4",58,"bCFS","f42887_e_005",0,10,0.373719281884655,"0",1,2,1.06262588500977,1,0
"1139","4",59,"bCFS","f42887_e_013",1,9,0.3,"0",1,1,1.92543339729309,1,0
"1140","4",60,"bCFS","f42887_e_013",1,9,0.9,"0",1,1,3.85854768753052,1,0
"1141","4",61,"bCFS","f42887_e_016",1,10,0.373719281884655,"0",1,2,1.20995283126831,1,0
"1142","4",62,"bCFS","f42887_e_021",1,9,0.9,"180",1,1,3.2986307144165,1,0
"1143","4",63,"bCFS","f42887_e_005",0,9,0.722467405584208,"180",1,1,2.60918211936951,1,0
"1144","4",64,"bCFS","f42887_e_026",1,10,0.3,"0",1,2,1.49851274490356,1,0
"1145","4",65,"bCFS","f42887_e_020",1,10,0.465553672174608,"0",1,1,1.79195356369019,0,0
"1146","4",66,"bCFS","f42887_e_028",1,10,0.465553672174608,"180",1,2,2.70240592956543,1,0
"1147","4",67,"bCFS","f42887_e_023",1,10,0.9,"180",1,2,1.73825597763062,1,0
"1148","4",68,"bCFS","f42887_e_016",0,10,0.3,"180",1,2,1.00511026382446,1,0
"1149","4",69,"bCFS","f42887_e_010",0,9,0.3,"180",1,1,2.46991276741028,1,0
"1150","4",70,"bCFS","f42887_e_004",1,10,0.579954613479529,"0",1,2,0.980094432830811,1,0
"1151","4",71,"bCFS","f42887_e_006",0,10,0.579954613479529,"0",1,2,1.23827147483826,1,0
"1152","4",72,"bCFS","f42887_e_013",0,9,0.465553672174608,"180",1,1,1.16500782966614,1,0
"1153","4",73,"bCFS","f42887_e_027",1,9,0.3,"180",1,1,0.76050877571106,1,0
"1154","4",74,"bCFS","f42887_e_004",0,9,0.722467405584208,"180",1,1,0.955940246582031,1,0
"1155","4",75,"bCFS","f42887_e_004",1,10,0.722467405584208,"0",1,2,0.727339267730713,1,0
"1156","4",76,"bCFS","f42887_e_002",0,10,0.722467405584208,"0",1,2,0.931604862213135,1,0
"1157","4",77,"bCFS","f42887_e_011",1,10,0.9,"0",1,2,0.854528427124023,1,0
"1158","4",78,"bCFS","f42887_e_014",0,9,0.465553672174608,"180",1,1,1.0227210521698,1,0
"1159","4",79,"bCFS","f42887_e_022",1,10,0.722467405584208,"0",1,2,0.671770095825195,1,0
"1160","4",80,"bCFS","f42887_e_006",0,10,0.3,"0",1,2,1.21339297294617,1,0
"1161","4",81,"bCFS","f42887_e_013",1,10,0.9,"180",1,2,0.774038314819336,1,0
"1162","4",82,"bCFS","f42887_e_029",0,10,0.3,"180",1,2,1.08883023262024,1,0
"1163","4",83,"bCFS","f42887_e_029",0,9,0.465553672174608,"180",1,1,0.95762038230896,1,0
"1164","4",84,"bCFS","f42887_e_011",1,10,0.722467405584208,"180",1,2,0.88114333152771,1,0
"1165","4",85,"bCFS","f42887_e_015",0,9,0.465553672174608,"0",1,1,1.07152009010315,1,0
"1166","4",86,"bCFS","f42887_e_022",1,10,0.9,"180",1,2,0.694042205810547,1,0
"1167","4",87,"bCFS","f42887_e_022",0,9,0.465553672174608,"0",1,1,0.939382314682007,1,0
"1168","4",88,"bCFS","f42887_e_029",1,9,0.373719281884655,"180",1,1,0.742866992950439,1,0
"1169","4",89,"bCFS","f42887_e_005",1,10,0.579954613479529,"180",1,2,0.674971342086792,1,0
"1170","4",90,"bCFS","f42887_e_012",0,10,0.373719281884655,"180",1,2,0.937811613082886,1,0
"1171","4",91,"bCFS","f42887_e_015",1,10,0.3,"180",1,2,1.566481590271,1,0
"1172","4",92,"bCFS","f42887_e_016",0,9,0.465553672174608,"180",1,1,1.42508029937744,1,0
"1173","4",93,"bCFS","f42887_e_006",1,10,0.465553672174608,"180",1,2,1.02539229393005,1,0
"1174","4",94,"bCFS","f42887_e_018",1,10,0.373719281884655,"0",1,2,2.54475235939026,1,0
"1175","4",95,"bCFS","f42887_e_025",1,9,0.722467405584208,"180",1,1,1.59557127952576,1,0
"1176","4",96,"bCFS","f42887_e_020",0,10,0.579954613479529,"180",1,2,0.805710315704346,1,0
"1177","4",97,"bCFS","f42887_e_021",0,9,0.3,"180",1,1,1.42268013954163,1,0
"1178","4",98,"bCFS","f42887_e_028",0,10,0.373719281884655,"0",1,2,0.927230596542358,1,0
"1179","4",99,"bCFS","f42887_e_015",0,10,0.722467405584208,"0",1,2,0.723547220230103,1,0
"1180","4",100,"bCFS","f42887_e_015",1,10,0.579954613479529,"180",1,2,2.85566806793213,1,0
"1181","4",101,"bCFS","f42887_e_014",1,9,0.722467405584208,"0",1,1,1.6306619644165,1,0
"1182","4",102,"bCFS","f42887_e_025",0,10,0.373719281884655,"0",1,2,1.61528658866882,1,0
"1183","4",103,"bCFS","f42887_e_028",0,9,0.465553672174608,"0",1,1,4.35145211219788,1,0
"1184","4",104,"bCFS","f42887_e_014",1,10,0.9,"180",1,2,0.907640218734741,1,0
"1185","4",105,"bCFS","f42887_e_002",1,9,0.9,"0",1,1,2.75251841545105,1,0
"1186","4",106,"bCFS","f42887_e_005",1,9,0.465553672174608,"0",1,1,2.52422761917114,1,0
"1187","4",107,"bCFS","f42887_e_017",0,9,0.722467405584208,"180",1,1,2.23289012908936,1,0
"1188","4",108,"bCFS","f42887_e_007",1,9,0.579954613479529,"0",1,1,0.808424949645996,1,0
"1189","4",109,"bCFS","f42887_e_019",0,9,0.722467405584208,"0",1,1,1.13054251670837,1,0
"1190","4",110,"bCFS","f42887_e_007",0,10,0.3,"180",1,2,1.13526248931885,1,0
"1191","4",111,"bCFS","f42887_e_010",0,10,0.3,"0",1,2,1.25007224082947,1,0
"1192","4",112,"bCFS","f42887_e_020",1,10,0.579954613479529,"0",1,2,1.35240936279297,1,0
"1193","4",113,"bCFS","f42887_e_026",0,9,0.579954613479529,"0",1,1,1.12373542785645,1,0
